Experiment,OldSubject,NewSubject,Feedback,Distribution,Confidence.Order,Trial,Advantage.Prop,Gamble.Prop,Choice.RT,No.FB.Trial,Deck,Gamble.Outcome,Frame,Running.Total,Bias,Choice
3,1,304,Full,Standard,First,1,0,1,936,,Bad,75,Gain,275,Bias-Consistent,Gamble
3,1,304,Full,Standard,First,2,0,0,786,,Good,-55,Gain,325,Bias-Inconsistent,Sure
3,1,304,Full,Standard,First,3,0,0,345,,Good,-30,Lose,275,Bias-Consistent,Sure
3,1,304,Full,Standard,First,4,1,1,1227,,Good,195,Gain,470,Bias-Inconsistent,Gamble
3,1,304,Full,Standard,First,5,0,1,946,,Bad,-170,Gain,300,Bias-Consistent,Gamble
3,1,304,Full,Standard,First,6,0,1,1201,,Bad,-60,Lose,240,Bias-Inconsistent,Gamble
3,1,304,Full,Standard,First,7,1,1,1143,,Good,120,Gain,360,Bias-Inconsistent,Gamble
3,1,304,Full,Standard,First,8,0,0,1150,,Good,160,Lose,310,Bias-Consistent,Sure
3,1,304,Full,Standard,First,9,0,1,1443,,Bad,-110,Gain,200,Bias-Consistent,Gamble
3,1,304,Full,Standard,First,10,1,1,1601,,Good,-50,Lose,150,Bias-Consistent,Gamble
3,1,304,Full,Standard,First,11,0,1,1234,,Bad,-130,Gain,20,Bias-Consistent,Gamble
3,1,304,Full,Standard,First,12,1,0,532,,Bad,100,Lose,-30,Bias-Inconsistent,Sure
3,1,304,Full,Standard,First,13,0,1,883,,Bad,-180,Lose,-210,Bias-Inconsistent,Gamble
3,1,304,Full,Standard,First,14,0,0,1136,,Good,40,Gain,-160,Bias-Inconsistent,Sure
3,1,304,Full,Standard,First,15,1,1,1089,,Good,115,Gain,-45,Bias-Inconsistent,Gamble
3,1,304,Full,Standard,First,16,0,0,1228,,Good,180,Lose,-95,Bias-Consistent,Sure
3,1,304,Full,Standard,First,17,0,1,600,,Bad,-125,Gain,-220,Bias-Consistent,Gamble
3,1,304,Full,Standard,First,18,1,0,389,,Bad,-70,Lose,-270,Bias-Inconsistent,Sure
3,1,304,Full,Standard,First,19,0,1,955,,Bad,-180,Gain,-450,Bias-Consistent,Gamble
3,1,304,Full,Standard,First,20,1,0,616,,Bad,-70,Gain,-400,Bias-Consistent,Sure
3,1,304,Full,Standard,First,21,1,1,1611,,Good,-55,Lose,-455,Bias-Consistent,Gamble
3,1,304,Full,Standard,First,22,0,1,1215,,Bad,-125,Lose,-580,Bias-Inconsistent,Gamble
3,1,304,Full,Standard,First,23,0,1,1218,,Bad,-170,Lose,-750,Bias-Inconsistent,Gamble
3,1,304,Full,Standard,First,24,1,0,1842,,Bad,-130,Lose,-800,Bias-Inconsistent,Sure
3,1,304,Full,Standard,First,25,1,1,1154,,Good,160,Gain,-640,Bias-Inconsistent,Gamble
3,1,304,Full,Standard,First,26,0,0,803,,Good,195,Lose,-690,Bias-Consistent,Sure
3,1,304,Full,Standard,First,27,1,1,962,,Good,180,Gain,-510,Bias-Inconsistent,Gamble
3,1,304,Full,Standard,First,28,0,0,1696,,Good,40,Lose,-560,Bias-Consistent,Sure
3,1,304,Full,Standard,First,29,,,0,,Bad,100,Gain,-660,Bias-Consistent,
3,1,304,Full,Standard,First,30,1,0,556,,Bad,-60,Gain,-610,Bias-Consistent,Sure
3,1,304,Full,Standard,First,31,1,1,741,,Good,115,Lose,-495,Bias-Consistent,Gamble
3,1,304,Full,Standard,First,32,0,1,884,,Bad,75,Lose,-420,Bias-Inconsistent,Gamble
3,1,304,Full,Standard,First,33,0,0,916,,Good,-50,Gain,-370,Bias-Inconsistent,Sure
3,1,304,Full,Standard,First,34,1,1,449,,Good,120,Lose,-250,Bias-Consistent,Gamble
3,1,304,Full,Standard,First,35,0,0,370,,Good,-30,Gain,-200,Bias-Inconsistent,Sure
3,1,304,Full,Standard,First,36,0,1,291,,Bad,-110,Lose,-310,Bias-Inconsistent,Gamble
3,1,304,Full,Standard,First,37,1,1,850,,Good,-55,Gain,-365,Bias-Inconsistent,Gamble
3,1,304,Full,Standard,First,38,1,0,438,,Bad,-60,Lose,-415,Bias-Inconsistent,Sure
3,1,304,Full,Standard,First,39,0,0,647,,Good,115,Gain,-365,Bias-Inconsistent,Sure
3,1,304,Full,Standard,First,40,1,1,232,,Good,180,Lose,-185,Bias-Consistent,Gamble
3,1,304,Full,Standard,First,41,1,1,1250,,Good,40,Gain,-145,Bias-Inconsistent,Gamble
3,1,304,Full,Standard,First,42,1,0,427,,Bad,-170,Gain,-95,Bias-Consistent,Sure
3,1,304,Full,Standard,First,43,1,1,639,,Good,195,Gain,100,Bias-Inconsistent,Gamble
3,1,304,Full,Standard,First,44,0,1,1186,,Bad,-110,Gain,-10,Bias-Consistent,Gamble
3,1,304,Full,Standard,First,45,1,0,1403,,Bad,-70,Lose,-60,Bias-Inconsistent,Sure
3,1,304,Full,Standard,First,46,1,1,316,,Good,120,Gain,60,Bias-Inconsistent,Gamble
3,1,304,Full,Standard,First,47,1,0,412,,Bad,-125,Gain,110,Bias-Consistent,Sure
3,1,304,Full,Standard,First,48,0,0,648,,Good,-50,Lose,60,Bias-Consistent,Sure
3,1,304,Full,Standard,First,49,1,1,773,,Good,-30,Lose,30,Bias-Consistent,Gamble
3,1,304,Full,Standard,First,50,1,1,1497,,Good,160,Lose,190,Bias-Consistent,Gamble
3,1,304,Full,Standard,First,51,1,0,998,,Bad,75,Gain,240,Bias-Consistent,Sure
3,1,304,Full,Standard,First,52,1,0,822,,Bad,100,Lose,190,Bias-Inconsistent,Sure
3,1,304,Full,Standard,First,53,0,1,357,,Bad,-180,Lose,10,Bias-Inconsistent,Gamble
3,1,304,Full,Standard,First,54,0,1,825,,Bad,-130,Gain,-120,Bias-Consistent,Gamble
3,1,304,Full,Standard,First,55,1,1,609,,Good,-50,Gain,-170,Bias-Inconsistent,Gamble
3,1,304,Full,Standard,First,56,1,1,677,,Good,-55,Lose,-225,Bias-Consistent,Gamble
3,1,304,Full,Standard,First,57,1,1,792,,Good,120,Lose,-105,Bias-Consistent,Gamble
3,1,304,Full,Standard,First,58,1,1,406,,Good,40,Lose,-65,Bias-Consistent,Gamble
3,1,304,Full,Standard,First,59,1,0,1020,,Bad,-130,Lose,-115,Bias-Inconsistent,Sure
3,1,304,Full,Standard,First,60,0,0,1021,,Good,115,Lose,-165,Bias-Consistent,Sure
3,1,304,Full,Standard,First,61,1,1,1738,,Good,195,Lose,30,Bias-Consistent,Gamble
3,1,304,Full,Standard,First,62,0,1,1156,,Bad,-125,Lose,-95,Bias-Inconsistent,Gamble
3,1,304,Full,Standard,First,63,1,0,992,,Bad,-60,Gain,-45,Bias-Consistent,Sure
3,1,304,Full,Standard,First,64,1,0,454,,Bad,100,Gain,5,Bias-Consistent,Sure
3,1,304,Full,Standard,First,65,0,0,874,,Good,180,Gain,55,Bias-Inconsistent,Sure
3,1,304,Full,Standard,First,66,0,1,614,,Bad,-170,Lose,-115,Bias-Inconsistent,Gamble
3,1,304,Full,Standard,First,67,1,0,1468,,Bad,75,Lose,-165,Bias-Inconsistent,Sure
3,1,304,Full,Standard,First,68,1,0,333,,Bad,-70,Gain,-115,Bias-Consistent,Sure
3,1,304,Full,Standard,First,69,1,1,875,,Good,-30,Gain,-145,Bias-Inconsistent,Gamble
3,1,304,Full,Standard,First,70,1,1,1725,,Good,160,Gain,15,Bias-Inconsistent,Gamble
3,1,304,Full,Standard,First,71,1,0,1563,,Bad,-110,Lose,-35,Bias-Inconsistent,Sure
3,1,304,Full,Standard,First,72,0,1,901,,Bad,-180,Gain,-215,Bias-Consistent,Gamble
3,2,305,Full,Standard,Last,1,0,0,1040,,Good,195,Gain,250,Bias-Inconsistent,Sure
3,2,305,Full,Standard,Last,2,1,1,923,,Good,-30,Lose,220,Bias-Consistent,Gamble
3,2,305,Full,Standard,Last,3,0,1,762,,Bad,-180,Lose,40,Bias-Inconsistent,Gamble
3,2,305,Full,Standard,Last,4,1,1,659,,Good,160,Lose,200,Bias-Consistent,Gamble
3,2,305,Full,Standard,Last,5,1,1,716,,Good,120,Gain,320,Bias-Inconsistent,Gamble
3,2,305,Full,Standard,Last,6,1,1,604,,Good,180,Lose,500,Bias-Consistent,Gamble
3,2,305,Full,Standard,Last,7,0,1,496,,Bad,100,Lose,600,Bias-Inconsistent,Gamble
3,2,305,Full,Standard,Last,8,0,1,529,,Bad,-70,Lose,530,Bias-Inconsistent,Gamble
3,2,305,Full,Standard,Last,9,1,1,609,,Good,-55,Gain,475,Bias-Inconsistent,Gamble
3,2,305,Full,Standard,Last,10,1,0,919,,Bad,-170,Gain,525,Bias-Consistent,Sure
3,2,305,Full,Standard,Last,11,0,1,1088,,Bad,-60,Lose,465,Bias-Inconsistent,Gamble
3,2,305,Full,Standard,Last,12,1,0,874,,Bad,-125,Gain,515,Bias-Consistent,Sure
3,2,305,Full,Standard,Last,13,1,1,771,,Good,-50,Lose,465,Bias-Consistent,Gamble
3,2,305,Full,Standard,Last,14,1,1,1244,,Good,40,Gain,505,Bias-Inconsistent,Gamble
3,2,305,Full,Standard,Last,15,0,1,1001,,Bad,-130,Gain,375,Bias-Consistent,Gamble
3,2,305,Full,Standard,Last,16,1,0,1360,,Bad,75,Gain,425,Bias-Consistent,Sure
3,2,305,Full,Standard,Last,17,0,1,1020,,Bad,-110,Gain,315,Bias-Consistent,Gamble
3,2,305,Full,Standard,Last,18,1,1,1271,,Good,115,Gain,430,Bias-Inconsistent,Gamble
3,2,305,Full,Standard,Last,19,,,0,,Good,195,Lose,330,Bias-Consistent,
3,2,305,Full,Standard,Last,20,1,1,823,,Good,120,Lose,450,Bias-Consistent,Gamble
3,2,305,Full,Standard,Last,21,1,1,444,,Good,180,Gain,630,Bias-Inconsistent,Gamble
3,2,305,Full,Standard,Last,22,0,1,903,,Bad,100,Gain,730,Bias-Consistent,Gamble
3,2,305,Full,Standard,Last,23,1,1,787,,Good,40,Lose,770,Bias-Consistent,Gamble
3,2,305,Full,Standard,Last,24,1,1,741,,Good,-50,Gain,720,Bias-Inconsistent,Gamble
3,2,305,Full,Standard,Last,25,1,0,745,,Bad,-180,Gain,770,Bias-Consistent,Sure
3,2,305,Full,Standard,Last,26,1,0,539,,Bad,-70,Gain,820,Bias-Consistent,Sure
3,2,305,Full,Standard,Last,27,0,1,1116,,Bad,-110,Lose,710,Bias-Inconsistent,Gamble
3,2,305,Full,Standard,Last,28,1,0,1203,,Bad,-130,Lose,660,Bias-Inconsistent,Sure
3,2,305,Full,Standard,Last,29,0,0,768,,Good,115,Lose,610,Bias-Consistent,Sure
3,2,305,Full,Standard,Last,30,0,1,839,,Bad,-125,Lose,485,Bias-Inconsistent,Gamble
3,2,305,Full,Standard,Last,31,1,0,400,,Bad,-170,Lose,435,Bias-Inconsistent,Sure
3,2,305,Full,Standard,Last,32,0,0,789,,Good,160,Gain,485,Bias-Inconsistent,Sure
3,2,305,Full,Standard,Last,33,0,1,521,,Bad,75,Lose,560,Bias-Inconsistent,Gamble
3,2,305,Full,Standard,Last,34,1,1,474,,Good,-55,Lose,505,Bias-Consistent,Gamble
3,2,305,Full,Standard,Last,35,1,1,1967,,Good,-30,Gain,475,Bias-Inconsistent,Gamble
3,2,305,Full,Standard,Last,36,0,1,429,,Bad,-60,Gain,415,Bias-Consistent,Gamble
3,2,305,Full,Standard,Last,37,1,1,739,,Good,40,Gain,455,Bias-Inconsistent,Gamble
3,2,305,Full,Standard,Last,38,0,1,694,,Bad,-170,Gain,285,Bias-Consistent,Gamble
3,2,305,Full,Standard,Last,39,0,0,761,,Good,-55,Gain,335,Bias-Inconsistent,Sure
3,2,305,Full,Standard,Last,40,0,1,532,,Bad,-70,Lose,265,Bias-Inconsistent,Gamble
3,2,305,Full,Standard,Last,41,0,0,740,,Good,115,Gain,315,Bias-Inconsistent,Sure
3,2,305,Full,Standard,Last,42,0,1,420,,Bad,75,Gain,390,Bias-Consistent,Gamble
3,2,305,Full,Standard,Last,43,0,1,650,,Bad,-125,Gain,265,Bias-Consistent,Gamble
3,2,305,Full,Standard,Last,44,1,1,831,,Good,180,Lose,445,Bias-Consistent,Gamble
3,2,305,Full,Standard,Last,45,1,1,299,,Good,195,Gain,640,Bias-Inconsistent,Gamble
3,2,305,Full,Standard,Last,46,1,1,385,,Good,120,Gain,760,Bias-Inconsistent,Gamble
3,2,305,Full,Standard,Last,47,0,1,366,,Bad,-130,Gain,630,Bias-Consistent,Gamble
3,2,305,Full,Standard,Last,48,1,0,462,,Bad,-60,Lose,580,Bias-Inconsistent,Sure
3,2,305,Full,Standard,Last,49,1,0,484,,Bad,100,Lose,530,Bias-Inconsistent,Sure
3,2,305,Full,Standard,Last,50,1,1,522,,Good,-50,Lose,480,Bias-Consistent,Gamble
3,2,305,Full,Standard,Last,51,1,1,672,,Good,160,Lose,640,Bias-Consistent,Gamble
3,2,305,Full,Standard,Last,52,1,0,866,,Bad,-110,Gain,690,Bias-Consistent,Sure
3,2,305,Full,Standard,Last,53,0,0,738,,Good,-30,Lose,640,Bias-Consistent,Sure
3,2,305,Full,Standard,Last,54,1,0,1000,,Bad,-180,Lose,590,Bias-Inconsistent,Sure
3,2,305,Full,Standard,Last,55,1,1,418,,Good,180,Gain,770,Bias-Inconsistent,Gamble
3,2,305,Full,Standard,Last,56,1,1,446,,Good,195,Lose,965,Bias-Consistent,Gamble
3,2,305,Full,Standard,Last,57,0,1,367,,Bad,75,Lose,1040,Bias-Inconsistent,Gamble
3,2,305,Full,Standard,Last,58,0,1,964,,Bad,-125,Lose,915,Bias-Inconsistent,Gamble
3,2,305,Full,Standard,Last,59,1,0,507,,Bad,-60,Gain,965,Bias-Consistent,Sure
3,2,305,Full,Standard,Last,60,1,0,768,,Bad,-70,Gain,1015,Bias-Consistent,Sure
3,2,305,Full,Standard,Last,61,1,0,681,,Bad,-170,Lose,965,Bias-Inconsistent,Sure
3,2,305,Full,Standard,Last,62,1,1,364,,Good,-30,Gain,935,Bias-Inconsistent,Gamble
3,2,305,Full,Standard,Last,63,0,1,240,,Bad,-180,Gain,755,Bias-Consistent,Gamble
3,2,305,Full,Standard,Last,64,0,0,400,,Good,160,Gain,805,Bias-Inconsistent,Sure
3,2,305,Full,Standard,Last,65,1,1,520,,Good,120,Lose,925,Bias-Consistent,Gamble
3,2,305,Full,Standard,Last,66,1,0,796,,Bad,-130,Lose,875,Bias-Inconsistent,Sure
3,2,305,Full,Standard,Last,67,0,1,458,,Bad,100,Gain,975,Bias-Consistent,Gamble
3,2,305,Full,Standard,Last,68,1,1,1090,,Good,40,Lose,1015,Bias-Consistent,Gamble
3,2,305,Full,Standard,Last,69,1,1,769,,Good,115,Lose,1130,Bias-Consistent,Gamble
3,2,305,Full,Standard,Last,70,1,0,900,,Bad,-110,Lose,1080,Bias-Inconsistent,Sure
3,2,305,Full,Standard,Last,71,0,0,786,,Good,-50,Gain,1130,Bias-Inconsistent,Sure
3,2,305,Full,Standard,Last,72,1,1,617,,Good,-55,Lose,1075,Bias-Consistent,Gamble
3,3,306,Full,Tight,First,1,0,1,1146,,Bad,-80,Lose,120,Bias-Inconsistent,Gamble
3,3,306,Full,Tight,First,2,1,1,1121,,Good,-5,Lose,115,Bias-Consistent,Gamble
3,3,306,Full,Tight,First,3,,,0,,Good,130,Lose,15,Bias-Consistent,
3,3,306,Full,Tight,First,4,0,0,1050,,Good,95,Lose,-35,Bias-Consistent,Sure
3,3,306,Full,Tight,First,5,0,0,1001,,Good,-15,Gain,15,Bias-Inconsistent,Sure
3,3,306,Full,Tight,First,6,0,0,1092,,Good,175,Gain,65,Bias-Inconsistent,Sure
3,3,306,Full,Tight,First,7,1,1,1709,,Good,-30,Lose,35,Bias-Consistent,Gamble
3,3,306,Full,Tight,First,8,1,1,1124,,Good,115,Gain,150,Bias-Inconsistent,Gamble
3,3,306,Full,Tight,First,9,0,1,940,,Bad,65,Lose,215,Bias-Inconsistent,Gamble
3,3,306,Full,Tight,First,10,1,0,907,,Bad,-100,Gain,265,Bias-Consistent,Sure
3,3,306,Full,Tight,First,11,1,1,1090,,Good,60,Gain,325,Bias-Inconsistent,Gamble
3,3,306,Full,Tight,First,12,1,0,966,,Bad,25,Gain,375,Bias-Consistent,Sure
3,3,306,Full,Tight,First,13,0,0,943,,Good,145,Gain,425,Bias-Inconsistent,Sure
3,3,306,Full,Tight,First,14,1,0,995,,Bad,-110,Gain,475,Bias-Consistent,Sure
3,3,306,Full,Tight,First,15,0,1,914,,Bad,-60,Lose,415,Bias-Inconsistent,Gamble
3,3,306,Full,Tight,First,16,0,1,1292,,Bad,-160,Lose,255,Bias-Inconsistent,Gamble
3,3,306,Full,Tight,First,17,0,1,1110,,Bad,-135,Gain,120,Bias-Consistent,Gamble
3,3,306,Full,Tight,First,18,0,1,1287,,Bad,-125,Gain,-5,Bias-Consistent,Gamble
3,3,306,Full,Tight,First,19,1,1,1115,,Good,145,Lose,140,Bias-Consistent,Gamble
3,3,306,Full,Tight,First,20,0,1,1241,,Bad,-60,Gain,80,Bias-Consistent,Gamble
3,3,306,Full,Tight,First,21,0,0,663,,Good,130,Gain,130,Bias-Inconsistent,Sure
3,3,306,Full,Tight,First,22,0,0,1319,,Good,95,Gain,180,Bias-Inconsistent,Sure
3,3,306,Full,Tight,First,23,0,1,758,,Bad,25,Lose,205,Bias-Inconsistent,Gamble
3,3,306,Full,Tight,First,24,0,0,971,,Good,-5,Gain,255,Bias-Inconsistent,Sure
3,3,306,Full,Tight,First,25,0,1,900,,Bad,-110,Lose,145,Bias-Inconsistent,Gamble
3,3,306,Full,Tight,First,26,0,1,1009,,Bad,-160,Gain,-15,Bias-Consistent,Gamble
3,3,306,Full,Tight,First,27,1,1,863,,Good,-15,Lose,-30,Bias-Consistent,Gamble
3,3,306,Full,Tight,First,28,0,1,1074,,Bad,-100,Lose,-130,Bias-Inconsistent,Gamble
3,3,306,Full,Tight,First,29,1,1,906,,Good,175,Lose,45,Bias-Consistent,Gamble
3,3,306,Full,Tight,First,30,1,1,1398,,Good,-30,Gain,15,Bias-Inconsistent,Gamble
3,3,306,Full,Tight,First,31,0,1,871,,Bad,-125,Lose,-110,Bias-Inconsistent,Gamble
3,3,306,Full,Tight,First,32,1,1,932,,Good,60,Lose,-50,Bias-Consistent,Gamble
3,3,306,Full,Tight,First,33,1,1,1050,,Good,115,Lose,65,Bias-Consistent,Gamble
3,3,306,Full,Tight,First,34,0,1,761,,Bad,-135,Lose,-70,Bias-Inconsistent,Gamble
3,3,306,Full,Tight,First,35,0,1,403,,Bad,65,Gain,-5,Bias-Consistent,Gamble
3,3,306,Full,Tight,First,36,1,0,1115,,Bad,-80,Gain,45,Bias-Consistent,Sure
3,3,306,Full,Tight,First,37,0,0,1313,,Good,145,Gain,95,Bias-Inconsistent,Sure
3,3,306,Full,Tight,First,38,0,1,856,,Bad,-160,Lose,-65,Bias-Inconsistent,Gamble
3,3,306,Full,Tight,First,39,0,1,1178,,Bad,65,Lose,0,Bias-Inconsistent,Gamble
3,3,306,Full,Tight,First,40,0,0,1043,,Good,-15,Gain,50,Bias-Inconsistent,Sure
3,3,306,Full,Tight,First,41,0,0,1027,,Good,60,Gain,100,Bias-Inconsistent,Sure
3,3,306,Full,Tight,First,42,0,1,841,,Bad,-135,Gain,-35,Bias-Consistent,Gamble
3,3,306,Full,Tight,First,43,1,1,907,,Good,130,Lose,95,Bias-Consistent,Gamble
3,3,306,Full,Tight,First,44,0,0,936,,Good,115,Gain,145,Bias-Inconsistent,Sure
3,3,306,Full,Tight,First,45,0,1,1025,,Bad,-80,Lose,65,Bias-Inconsistent,Gamble
3,3,306,Full,Tight,First,46,,,0,,Bad,-110,Gain,-35,Bias-Consistent,
3,3,306,Full,Tight,First,47,0,1,1069,,Bad,-60,Lose,-95,Bias-Inconsistent,Gamble
3,3,306,Full,Tight,First,48,0,0,304,,Good,-5,Lose,-145,Bias-Consistent,Sure
3,3,306,Full,Tight,First,49,1,1,647,,Good,175,Gain,30,Bias-Inconsistent,Gamble
3,3,306,Full,Tight,First,50,0,1,848,,Bad,-125,Gain,-95,Bias-Consistent,Gamble
3,3,306,Full,Tight,First,51,1,0,743,,Bad,-100,Gain,-45,Bias-Consistent,Sure
3,3,306,Full,Tight,First,52,1,1,788,,Good,-30,Lose,-75,Bias-Consistent,Gamble
3,3,306,Full,Tight,First,53,1,1,672,,Good,95,Lose,20,Bias-Consistent,Gamble
3,3,306,Full,Tight,First,54,1,0,908,,Bad,25,Gain,70,Bias-Consistent,Sure
3,3,306,Full,Tight,First,55,0,1,1031,,Bad,-80,Gain,-10,Bias-Consistent,Gamble
3,3,306,Full,Tight,First,56,1,1,780,,Good,145,Lose,135,Bias-Consistent,Gamble
3,3,306,Full,Tight,First,57,1,0,830,,Bad,65,Gain,185,Bias-Consistent,Sure
3,3,306,Full,Tight,First,58,1,1,754,,Good,-30,Gain,155,Bias-Inconsistent,Gamble
3,3,306,Full,Tight,First,59,1,1,776,,Good,60,Lose,215,Bias-Consistent,Gamble
3,3,306,Full,Tight,First,60,0,1,643,,Bad,25,Lose,240,Bias-Inconsistent,Gamble
3,3,306,Full,Tight,First,61,1,0,651,,Bad,-60,Gain,290,Bias-Consistent,Sure
3,3,306,Full,Tight,First,62,1,1,517,,Good,115,Lose,405,Bias-Consistent,Gamble
3,3,306,Full,Tight,First,63,0,0,665,,Good,130,Gain,455,Bias-Inconsistent,Sure
3,3,306,Full,Tight,First,64,0,1,575,,Bad,-100,Lose,355,Bias-Inconsistent,Gamble
3,3,306,Full,Tight,First,65,1,1,1531,,Good,-15,Lose,340,Bias-Consistent,Gamble
3,3,306,Full,Tight,First,66,1,0,591,,Bad,-160,Gain,390,Bias-Consistent,Sure
3,3,306,Full,Tight,First,67,1,1,557,,Good,95,Gain,485,Bias-Inconsistent,Gamble
3,3,306,Full,Tight,First,68,1,1,359,,Good,175,Lose,660,Bias-Consistent,Gamble
3,3,306,Full,Tight,First,69,0,0,437,,Good,-5,Gain,710,Bias-Inconsistent,Sure
3,3,306,Full,Tight,First,70,0,1,454,,Bad,-125,Lose,585,Bias-Inconsistent,Gamble
3,3,306,Full,Tight,First,71,0,1,792,,Bad,-110,Lose,475,Bias-Inconsistent,Gamble
3,3,306,Full,Tight,First,72,0,1,413,,Bad,-135,Lose,340,Bias-Inconsistent,Gamble
3,4,307,Full,Tight,Last,1,,,0,,Bad,-125,Gain,100,Bias-Consistent,
3,4,307,Full,Tight,Last,2,1,0,1048,,Bad,-80,Lose,50,Bias-Inconsistent,Sure
3,4,307,Full,Tight,Last,3,,,0,,Bad,-160,Lose,-50,Bias-Inconsistent,
3,4,307,Full,Tight,Last,4,,,0,,Good,145,Gain,-150,Bias-Inconsistent,
3,4,307,Full,Tight,Last,5,,,0,,Good,-15,Gain,-250,Bias-Inconsistent,
3,4,307,Full,Tight,Last,6,,,0,,Good,-30,Lose,-350,Bias-Consistent,
3,4,307,Full,Tight,Last,7,0,1,748,,Bad,-100,Gain,-450,Bias-Consistent,Gamble
3,4,307,Full,Tight,Last,8,1,1,920,,Good,-5,Lose,-455,Bias-Consistent,Gamble
3,4,307,Full,Tight,Last,9,0,0,780,,Good,130,Lose,-505,Bias-Consistent,Sure
3,4,307,Full,Tight,Last,10,0,1,962,,Bad,25,Gain,-480,Bias-Consistent,Gamble
3,4,307,Full,Tight,Last,11,1,0,1058,,Bad,-110,Gain,-430,Bias-Consistent,Sure
3,4,307,Full,Tight,Last,12,0,0,706,,Good,175,Gain,-380,Bias-Inconsistent,Sure
3,4,307,Full,Tight,Last,13,1,0,389,,Bad,-135,Gain,-330,Bias-Consistent,Sure
3,4,307,Full,Tight,Last,14,1,1,524,,Good,95,Lose,-235,Bias-Consistent,Gamble
3,4,307,Full,Tight,Last,15,1,0,392,,Bad,65,Lose,-285,Bias-Inconsistent,Sure
3,4,307,Full,Tight,Last,16,0,1,731,,Bad,-60,Lose,-345,Bias-Inconsistent,Gamble
3,4,307,Full,Tight,Last,17,0,0,485,,Good,115,Gain,-295,Bias-Inconsistent,Sure
3,4,307,Full,Tight,Last,18,0,0,528,,Good,60,Gain,-245,Bias-Inconsistent,Sure
3,4,307,Full,Tight,Last,19,0,1,536,,Bad,-80,Gain,-325,Bias-Consistent,Gamble
3,4,307,Full,Tight,Last,20,0,0,322,,Good,130,Gain,-275,Bias-Inconsistent,Sure
3,4,307,Full,Tight,Last,21,1,0,224,,Bad,25,Lose,-325,Bias-Inconsistent,Sure
3,4,307,Full,Tight,Last,22,1,0,1154,,Bad,65,Gain,-275,Bias-Consistent,Sure
3,4,307,Full,Tight,Last,23,1,1,490,,Good,95,Gain,-180,Bias-Inconsistent,Gamble
3,4,307,Full,Tight,Last,24,0,1,593,,Bad,-125,Lose,-305,Bias-Inconsistent,Gamble
3,4,307,Full,Tight,Last,25,0,0,444,,Good,-15,Lose,-355,Bias-Consistent,Sure
3,4,307,Full,Tight,Last,26,1,1,332,,Good,175,Lose,-180,Bias-Consistent,Gamble
3,4,307,Full,Tight,Last,27,0,1,615,,Bad,-135,Lose,-315,Bias-Inconsistent,Gamble
3,4,307,Full,Tight,Last,28,0,1,553,,Bad,-110,Lose,-425,Bias-Inconsistent,Gamble
3,4,307,Full,Tight,Last,29,0,0,472,,Good,-30,Gain,-375,Bias-Inconsistent,Sure
3,4,307,Full,Tight,Last,30,0,0,473,,Good,-5,Gain,-325,Bias-Inconsistent,Sure
3,4,307,Full,Tight,Last,31,1,0,525,,Bad,-60,Gain,-275,Bias-Consistent,Sure
3,4,307,Full,Tight,Last,32,1,1,755,,Good,115,Lose,-160,Bias-Consistent,Gamble
3,4,307,Full,Tight,Last,33,0,1,489,,Bad,-100,Lose,-260,Bias-Inconsistent,Gamble
3,4,307,Full,Tight,Last,34,1,1,713,,Good,145,Lose,-115,Bias-Consistent,Gamble
3,4,307,Full,Tight,Last,35,1,0,600,,Bad,-160,Gain,-65,Bias-Consistent,Sure
3,4,307,Full,Tight,Last,36,1,1,614,,Good,60,Lose,-5,Bias-Consistent,Gamble
3,4,307,Full,Tight,Last,37,1,0,769,,Bad,25,Gain,45,Bias-Consistent,Sure
3,4,307,Full,Tight,Last,38,0,0,713,,Good,175,Gain,95,Bias-Inconsistent,Sure
3,4,307,Full,Tight,Last,39,0,1,487,,Bad,-60,Lose,35,Bias-Inconsistent,Gamble
3,4,307,Full,Tight,Last,40,0,1,486,,Bad,65,Lose,100,Bias-Inconsistent,Gamble
3,4,307,Full,Tight,Last,41,0,1,606,,Bad,-80,Lose,20,Bias-Inconsistent,Gamble
3,4,307,Full,Tight,Last,42,1,1,755,,Good,-5,Lose,15,Bias-Consistent,Gamble
3,4,307,Full,Tight,Last,43,0,0,488,,Good,145,Gain,65,Bias-Inconsistent,Sure
3,4,307,Full,Tight,Last,44,0,1,681,,Bad,-160,Lose,-95,Bias-Inconsistent,Gamble
3,4,307,Full,Tight,Last,45,1,0,650,,Bad,-110,Gain,-45,Bias-Consistent,Sure
3,4,307,Full,Tight,Last,46,1,1,901,,Good,130,Lose,85,Bias-Consistent,Gamble
3,4,307,Full,Tight,Last,47,1,0,596,,Bad,-125,Gain,135,Bias-Consistent,Sure
3,4,307,Full,Tight,Last,48,1,0,561,,Bad,-135,Gain,185,Bias-Consistent,Sure
3,4,307,Full,Tight,Last,49,0,0,480,,Good,-15,Gain,235,Bias-Inconsistent,Sure
3,4,307,Full,Tight,Last,50,0,0,860,,Good,-30,Lose,185,Bias-Consistent,Sure
3,4,307,Full,Tight,Last,51,1,1,976,,Good,95,Lose,280,Bias-Consistent,Gamble
3,4,307,Full,Tight,Last,52,1,0,656,,Bad,-100,Gain,330,Bias-Consistent,Sure
3,4,307,Full,Tight,Last,53,0,0,1161,,Good,115,Gain,380,Bias-Inconsistent,Sure
3,4,307,Full,Tight,Last,54,1,1,1058,,Good,60,Gain,440,Bias-Inconsistent,Gamble
3,4,307,Full,Tight,Last,55,1,1,1405,,Good,-30,Gain,410,Bias-Inconsistent,Gamble
3,4,307,Full,Tight,Last,56,1,0,997,,Bad,-60,Gain,460,Bias-Consistent,Sure
3,4,307,Full,Tight,Last,57,1,1,1241,,Good,95,Gain,555,Bias-Inconsistent,Gamble
3,4,307,Full,Tight,Last,58,0,1,1322,,Bad,-125,Lose,430,Bias-Inconsistent,Gamble
3,4,307,Full,Tight,Last,59,1,0,1260,,Bad,65,Gain,480,Bias-Consistent,Sure
3,4,307,Full,Tight,Last,60,0,0,864,,Good,-5,Gain,530,Bias-Inconsistent,Sure
3,4,307,Full,Tight,Last,61,0,1,1018,,Bad,-135,Lose,395,Bias-Inconsistent,Gamble
3,4,307,Full,Tight,Last,62,1,1,1005,,Good,175,Lose,570,Bias-Consistent,Gamble
3,4,307,Full,Tight,Last,63,1,0,1630,,Bad,-160,Gain,620,Bias-Consistent,Sure
3,4,307,Full,Tight,Last,64,1,1,1077,,Good,-15,Lose,605,Bias-Consistent,Gamble
3,4,307,Full,Tight,Last,65,0,1,1848,,Bad,25,Lose,630,Bias-Inconsistent,Gamble
3,4,307,Full,Tight,Last,66,1,1,739,,Good,60,Lose,690,Bias-Consistent,Gamble
3,4,307,Full,Tight,Last,67,1,1,734,,Good,115,Lose,805,Bias-Consistent,Gamble
3,4,307,Full,Tight,Last,68,1,1,778,,Good,145,Lose,950,Bias-Consistent,Gamble
3,4,307,Full,Tight,Last,69,0,1,644,,Bad,-100,Lose,850,Bias-Inconsistent,Gamble
3,4,307,Full,Tight,Last,70,1,0,530,,Bad,-110,Lose,800,Bias-Inconsistent,Sure
3,4,307,Full,Tight,Last,71,0,1,1036,,Bad,-80,Gain,720,Bias-Consistent,Gamble
3,4,307,Full,Tight,Last,72,0,0,581,,Good,130,Gain,770,Bias-Inconsistent,Sure
3,13,308,Full,Standard,First,1,1,0,656,,Bad,-170,Gain,250,Bias-Consistent,Sure
3,13,308,Full,Standard,First,2,1,0,78,,Bad,-130,Gain,300,Bias-Consistent,Sure
3,13,308,Full,Standard,First,3,1,0,84,,Bad,75,Gain,350,Bias-Consistent,Sure
3,13,308,Full,Standard,First,4,1,0,1161,,Bad,-125,Gain,400,Bias-Consistent,Sure
3,13,308,Full,Standard,First,5,1,1,1319,,Good,160,Lose,560,Bias-Consistent,Gamble
3,13,308,Full,Standard,First,6,1,0,90,,Bad,-180,Lose,510,Bias-Inconsistent,Sure
3,13,308,Full,Standard,First,7,1,0,105,,Bad,100,Lose,460,Bias-Inconsistent,Sure
3,13,308,Full,Standard,First,8,0,0,870,,Good,195,Gain,510,Bias-Inconsistent,Sure
3,13,308,Full,Standard,First,9,0,1,924,,Bad,-60,Lose,450,Bias-Inconsistent,Gamble
3,13,308,Full,Standard,First,10,0,0,782,,Good,-55,Gain,500,Bias-Inconsistent,Sure
3,13,308,Full,Standard,First,11,1,0,97,,Bad,-70,Lose,450,Bias-Inconsistent,Sure
3,13,308,Full,Standard,First,12,1,1,700,,Good,180,Lose,630,Bias-Consistent,Gamble
3,13,308,Full,Standard,First,13,1,0,880,,Bad,-110,Gain,680,Bias-Consistent,Sure
3,13,308,Full,Standard,First,14,1,1,871,,Good,40,Gain,720,Bias-Inconsistent,Gamble
3,13,308,Full,Standard,First,15,0,0,1018,,Good,120,Gain,770,Bias-Inconsistent,Sure
3,13,308,Full,Standard,First,16,1,1,1391,,Good,115,Gain,885,Bias-Inconsistent,Gamble
3,13,308,Full,Standard,First,17,1,1,1194,,Good,-30,Lose,855,Bias-Consistent,Gamble
3,13,308,Full,Standard,First,18,1,1,1539,,Good,-50,Lose,805,Bias-Consistent,Gamble
3,13,308,Full,Standard,First,19,0,1,1224,,Bad,-70,Gain,735,Bias-Consistent,Gamble
3,13,308,Full,Standard,First,20,0,0,1597,,Good,115,Lose,685,Bias-Consistent,Sure
3,13,308,Full,Standard,First,21,0,1,1524,,Bad,75,Lose,760,Bias-Inconsistent,Gamble
3,13,308,Full,Standard,First,22,0,0,879,,Good,180,Gain,810,Bias-Inconsistent,Sure
3,13,308,Full,Standard,First,23,0,1,1617,,Bad,-110,Lose,700,Bias-Inconsistent,Gamble
3,13,308,Full,Standard,First,24,0,1,1371,,Bad,-170,Lose,530,Bias-Inconsistent,Gamble
3,13,308,Full,Standard,First,25,0,1,1237,,Bad,100,Gain,630,Bias-Consistent,Gamble
3,13,308,Full,Standard,First,26,1,1,839,,Good,-55,Lose,575,Bias-Consistent,Gamble
3,13,308,Full,Standard,First,27,1,0,97,,Bad,-130,Lose,525,Bias-Inconsistent,Sure
3,13,308,Full,Standard,First,28,1,1,951,,Good,-30,Gain,495,Bias-Inconsistent,Gamble
3,13,308,Full,Standard,First,29,1,0,874,,Bad,-180,Gain,545,Bias-Consistent,Sure
3,13,308,Full,Standard,First,30,1,1,986,,Good,40,Lose,585,Bias-Consistent,Gamble
3,13,308,Full,Standard,First,31,0,0,1009,,Good,120,Lose,535,Bias-Consistent,Sure
3,13,308,Full,Standard,First,32,1,1,1590,,Good,195,Lose,730,Bias-Consistent,Gamble
3,13,308,Full,Standard,First,33,1,0,548,,Bad,-60,Gain,780,Bias-Consistent,Sure
3,13,308,Full,Standard,First,34,1,1,1330,,Good,160,Gain,940,Bias-Inconsistent,Gamble
3,13,308,Full,Standard,First,35,0,0,1278,,Good,-50,Gain,990,Bias-Inconsistent,Sure
3,13,308,Full,Standard,First,36,0,1,1136,,Bad,-125,Lose,865,Bias-Inconsistent,Gamble
3,13,308,Full,Standard,First,37,0,1,1161,,Bad,-125,Gain,740,Bias-Consistent,Gamble
3,13,308,Full,Standard,First,38,0,1,990,,Bad,-110,Gain,630,Bias-Consistent,Gamble
3,13,308,Full,Standard,First,39,0,1,1471,,Bad,-60,Lose,570,Bias-Inconsistent,Gamble
3,13,308,Full,Standard,First,40,0,0,963,,Good,120,Gain,620,Bias-Inconsistent,Sure
3,13,308,Full,Standard,First,41,1,0,943,,Bad,-130,Gain,670,Bias-Consistent,Sure
3,13,308,Full,Standard,First,42,1,1,634,,Good,-55,Gain,615,Bias-Inconsistent,Gamble
3,13,308,Full,Standard,First,43,0,1,1272,,Bad,-180,Lose,435,Bias-Inconsistent,Gamble
3,13,308,Full,Standard,First,44,1,1,947,,Good,180,Lose,615,Bias-Consistent,Gamble
3,13,308,Full,Standard,First,45,0,1,1642,,Bad,100,Lose,715,Bias-Inconsistent,Gamble
3,13,308,Full,Standard,First,46,0,0,993,,Good,40,Gain,765,Bias-Inconsistent,Sure
3,13,308,Full,Standard,First,47,1,1,1177,,Good,160,Lose,925,Bias-Consistent,Gamble
3,13,308,Full,Standard,First,48,,,0,,Good,-50,Lose,825,Bias-Consistent,
3,13,308,Full,Standard,First,49,1,0,1187,,Bad,-170,Gain,875,Bias-Consistent,Sure
3,13,308,Full,Standard,First,50,0,1,991,,Bad,-70,Lose,805,Bias-Inconsistent,Gamble
3,13,308,Full,Standard,First,51,0,0,830,,Good,115,Gain,855,Bias-Inconsistent,Sure
3,13,308,Full,Standard,First,52,1,0,1187,,Bad,75,Gain,905,Bias-Consistent,Sure
3,13,308,Full,Standard,First,53,0,0,1073,,Good,195,Gain,955,Bias-Inconsistent,Sure
3,13,308,Full,Standard,First,54,1,1,1933,,Good,-30,Lose,925,Bias-Consistent,Gamble
3,13,308,Full,Standard,First,55,1,0,938,,Bad,-70,Gain,975,Bias-Consistent,Sure
3,13,308,Full,Standard,First,56,1,1,1104,,Good,115,Lose,1090,Bias-Consistent,Gamble
3,13,308,Full,Standard,First,57,1,1,1482,,Good,-55,Lose,1035,Bias-Consistent,Gamble
3,13,308,Full,Standard,First,58,1,0,717,,Bad,-180,Gain,1085,Bias-Consistent,Sure
3,13,308,Full,Standard,First,59,0,0,1514,,Good,-30,Gain,1135,Bias-Inconsistent,Sure
3,13,308,Full,Standard,First,60,,,0,,Good,40,Lose,1035,Bias-Consistent,
3,13,308,Full,Standard,First,61,1,0,673,,Bad,100,Gain,1085,Bias-Consistent,Sure
3,13,308,Full,Standard,First,62,1,1,985,,Good,195,Lose,1280,Bias-Consistent,Gamble
3,13,308,Full,Standard,First,63,1,1,682,,Good,180,Gain,1460,Bias-Inconsistent,Gamble
3,13,308,Full,Standard,First,64,0,0,1028,,Good,120,Lose,1410,Bias-Consistent,Sure
3,13,308,Full,Standard,First,65,0,1,1057,,Bad,-170,Lose,1240,Bias-Inconsistent,Gamble
3,13,308,Full,Standard,First,66,0,1,973,,Bad,75,Lose,1315,Bias-Inconsistent,Gamble
3,13,308,Full,Standard,First,67,1,0,1190,,Bad,-125,Lose,1265,Bias-Inconsistent,Sure
3,13,308,Full,Standard,First,68,1,0,1318,,Bad,-60,Gain,1315,Bias-Consistent,Sure
3,13,308,Full,Standard,First,69,1,1,885,,Good,160,Gain,1475,Bias-Inconsistent,Gamble
3,13,308,Full,Standard,First,70,0,0,1100,,Good,-50,Gain,1525,Bias-Inconsistent,Sure
3,13,308,Full,Standard,First,71,0,1,1260,,Bad,-130,Lose,1395,Bias-Inconsistent,Gamble
3,13,308,Full,Standard,First,72,0,1,1128,,Bad,-110,Lose,1285,Bias-Inconsistent,Gamble
3,14,309,Full,Standard,Last,1,0,1,904,,Bad,-60,Lose,140,Bias-Inconsistent,Gamble
3,14,309,Full,Standard,Last,2,1,0,1290,,Bad,75,Gain,190,Bias-Consistent,Sure
3,14,309,Full,Standard,Last,3,1,1,1082,,Good,195,Gain,385,Bias-Inconsistent,Gamble
3,14,309,Full,Standard,Last,4,0,0,1575,,Good,120,Gain,435,Bias-Inconsistent,Sure
3,14,309,Full,Standard,Last,5,1,1,882,,Good,115,Gain,550,Bias-Inconsistent,Gamble
3,14,309,Full,Standard,Last,6,1,1,798,,Good,-30,Lose,520,Bias-Consistent,Gamble
3,14,309,Full,Standard,Last,7,0,1,648,,Bad,-180,Lose,340,Bias-Inconsistent,Gamble
3,14,309,Full,Standard,Last,8,1,0,1003,,Bad,-110,Gain,390,Bias-Consistent,Sure
3,14,309,Full,Standard,Last,9,1,1,875,,Good,-50,Lose,340,Bias-Consistent,Gamble
3,14,309,Full,Standard,Last,10,0,1,1529,,Bad,-70,Lose,270,Bias-Inconsistent,Gamble
3,14,309,Full,Standard,Last,11,1,1,856,,Good,160,Lose,430,Bias-Consistent,Gamble
3,14,309,Full,Standard,Last,12,1,1,1464,,Good,-55,Gain,375,Bias-Inconsistent,Gamble
3,14,309,Full,Standard,Last,13,0,0,1241,,Good,40,Gain,425,Bias-Inconsistent,Sure
3,14,309,Full,Standard,Last,14,0,1,1251,,Bad,-125,Gain,300,Bias-Consistent,Gamble
3,14,309,Full,Standard,Last,15,0,0,1725,,Good,180,Lose,250,Bias-Consistent,Sure
3,14,309,Full,Standard,Last,16,0,1,1124,,Bad,100,Lose,350,Bias-Inconsistent,Gamble
3,14,309,Full,Standard,Last,17,0,1,975,,Bad,-130,Gain,220,Bias-Consistent,Gamble
3,14,309,Full,Standard,Last,18,1,0,1088,,Bad,-170,Gain,270,Bias-Consistent,Sure
3,14,309,Full,Standard,Last,19,1,1,1016,,Good,180,Gain,450,Bias-Inconsistent,Gamble
3,14,309,Full,Standard,Last,20,1,0,1473,,Bad,-60,Gain,500,Bias-Consistent,Sure
3,14,309,Full,Standard,Last,21,0,0,1688,,Good,-50,Gain,550,Bias-Inconsistent,Sure
3,14,309,Full,Standard,Last,22,0,1,975,,Bad,-180,Gain,370,Bias-Consistent,Gamble
3,14,309,Full,Standard,Last,23,1,0,881,,Bad,-70,Gain,420,Bias-Consistent,Sure
3,14,309,Full,Standard,Last,24,1,0,1413,,Bad,-130,Lose,370,Bias-Inconsistent,Sure
3,14,309,Full,Standard,Last,25,0,1,1137,,Bad,100,Gain,470,Bias-Consistent,Gamble
3,14,309,Full,Standard,Last,26,1,0,1333,,Bad,75,Lose,420,Bias-Inconsistent,Sure
3,14,309,Full,Standard,Last,27,1,1,1232,,Good,115,Lose,535,Bias-Consistent,Gamble
3,14,309,Full,Standard,Last,28,0,0,1851,,Good,120,Lose,485,Bias-Consistent,Sure
3,14,309,Full,Standard,Last,29,0,1,669,,Bad,-125,Lose,360,Bias-Inconsistent,Gamble
3,14,309,Full,Standard,Last,30,1,1,1382,,Good,195,Lose,555,Bias-Consistent,Gamble
3,14,309,Full,Standard,Last,31,,,0,,Good,40,Lose,455,Bias-Consistent,
3,14,309,Full,Standard,Last,32,1,1,724,,Good,-55,Lose,400,Bias-Consistent,Gamble
3,14,309,Full,Standard,Last,33,1,0,662,,Bad,-110,Lose,350,Bias-Inconsistent,Sure
3,14,309,Full,Standard,Last,34,1,1,369,,Good,160,Gain,510,Bias-Inconsistent,Gamble
3,14,309,Full,Standard,Last,35,1,1,509,,Good,-30,Gain,480,Bias-Inconsistent,Gamble
3,14,309,Full,Standard,Last,36,0,1,1072,,Bad,-170,Lose,310,Bias-Inconsistent,Gamble
3,14,309,Full,Standard,Last,37,1,1,1003,,Good,115,Gain,425,Bias-Inconsistent,Gamble
3,14,309,Full,Standard,Last,38,1,1,1256,,Good,-30,Lose,395,Bias-Consistent,Gamble
3,14,309,Full,Standard,Last,39,1,0,1755,,Bad,-125,Gain,445,Bias-Consistent,Sure
3,14,309,Full,Standard,Last,40,1,0,1596,,Bad,75,Gain,495,Bias-Consistent,Sure
3,14,309,Full,Standard,Last,41,0,1,1272,,Bad,100,Lose,595,Bias-Inconsistent,Gamble
3,14,309,Full,Standard,Last,42,,,0,,Good,40,Gain,495,Bias-Inconsistent,
3,14,309,Full,Standard,Last,43,0,1,908,,Bad,-130,Gain,365,Bias-Consistent,Gamble
3,14,309,Full,Standard,Last,44,1,0,913,,Bad,-170,Gain,415,Bias-Consistent,Sure
3,14,309,Full,Standard,Last,45,0,0,925,,Good,195,Gain,465,Bias-Inconsistent,Sure
3,14,309,Full,Standard,Last,46,1,0,1182,,Bad,-180,Lose,415,Bias-Inconsistent,Sure
3,14,309,Full,Standard,Last,47,0,0,711,,Good,120,Gain,465,Bias-Inconsistent,Sure
3,14,309,Full,Standard,Last,48,0,0,1197,,Good,160,Lose,415,Bias-Consistent,Sure
3,14,309,Full,Standard,Last,49,1,1,761,,Good,180,Lose,595,Bias-Consistent,Gamble
3,14,309,Full,Standard,Last,50,1,1,639,,Good,-50,Lose,545,Bias-Consistent,Gamble
3,14,309,Full,Standard,Last,51,0,1,818,,Bad,-110,Gain,435,Bias-Consistent,Gamble
3,14,309,Full,Standard,Last,52,1,1,465,,Good,-55,Gain,380,Bias-Inconsistent,Gamble
3,14,309,Full,Standard,Last,53,1,0,952,,Bad,-70,Lose,330,Bias-Inconsistent,Sure
3,14,309,Full,Standard,Last,54,0,1,728,,Bad,-60,Lose,270,Bias-Inconsistent,Gamble
3,14,309,Full,Standard,Last,55,0,1,819,,Bad,-110,Lose,160,Bias-Inconsistent,Gamble
3,14,309,Full,Standard,Last,56,1,1,669,,Good,-55,Lose,105,Bias-Consistent,Gamble
3,14,309,Full,Standard,Last,57,1,1,1129,,Good,40,Lose,145,Bias-Consistent,Gamble
3,14,309,Full,Standard,Last,58,1,0,1281,,Bad,-180,Gain,195,Bias-Consistent,Sure
3,14,309,Full,Standard,Last,59,1,1,1306,,Good,-30,Gain,165,Bias-Inconsistent,Gamble
3,14,309,Full,Standard,Last,60,0,0,827,,Good,115,Lose,115,Bias-Consistent,Sure
3,14,309,Full,Standard,Last,61,1,1,673,,Good,-50,Gain,65,Bias-Inconsistent,Gamble
3,14,309,Full,Standard,Last,62,1,0,851,,Bad,-130,Lose,15,Bias-Inconsistent,Sure
3,14,309,Full,Standard,Last,63,0,1,886,,Bad,75,Lose,90,Bias-Inconsistent,Gamble
3,14,309,Full,Standard,Last,64,1,1,960,,Good,195,Lose,285,Bias-Consistent,Gamble
3,14,309,Full,Standard,Last,65,1,1,651,,Good,180,Gain,465,Bias-Inconsistent,Gamble
3,14,309,Full,Standard,Last,66,1,0,1337,,Bad,-70,Gain,515,Bias-Consistent,Sure
3,14,309,Full,Standard,Last,67,0,0,854,,Good,160,Gain,565,Bias-Inconsistent,Sure
3,14,309,Full,Standard,Last,68,1,1,821,,Good,120,Lose,685,Bias-Consistent,Gamble
3,14,309,Full,Standard,Last,69,1,0,834,,Bad,-125,Lose,635,Bias-Inconsistent,Sure
3,14,309,Full,Standard,Last,70,0,1,531,,Bad,100,Gain,735,Bias-Consistent,Gamble
3,14,309,Full,Standard,Last,71,0,1,717,,Bad,-170,Lose,565,Bias-Inconsistent,Gamble
3,14,309,Full,Standard,Last,72,1,0,592,,Bad,-60,Gain,615,Bias-Consistent,Sure
3,15,310,Full,Tight,First,1,0,1,969,,Bad,-125,Gain,75,Bias-Consistent,Gamble
3,15,310,Full,Tight,First,2,0,0,766,,Good,130,Lose,25,Bias-Consistent,Sure
3,15,310,Full,Tight,First,3,0,1,565,,Bad,-100,Gain,-75,Bias-Consistent,Gamble
3,15,310,Full,Tight,First,4,0,1,398,,Bad,-80,Lose,-155,Bias-Inconsistent,Gamble
3,15,310,Full,Tight,First,5,0,0,587,,Good,-15,Gain,-105,Bias-Inconsistent,Sure
3,15,310,Full,Tight,First,6,1,1,905,,Good,60,Gain,-45,Bias-Inconsistent,Gamble
3,15,310,Full,Tight,First,7,1,1,776,,Good,145,Gain,100,Bias-Inconsistent,Gamble
3,15,310,Full,Tight,First,8,1,0,766,,Bad,25,Gain,150,Bias-Consistent,Sure
3,15,310,Full,Tight,First,9,1,1,551,,Good,95,Lose,245,Bias-Consistent,Gamble
3,15,310,Full,Tight,First,10,0,1,794,,Bad,65,Lose,310,Bias-Inconsistent,Gamble
3,15,310,Full,Tight,First,11,0,0,782,,Good,175,Gain,360,Bias-Inconsistent,Sure
3,15,310,Full,Tight,First,12,0,1,849,,Bad,-60,Lose,300,Bias-Inconsistent,Gamble
3,15,310,Full,Tight,First,13,0,1,809,,Bad,-135,Gain,165,Bias-Consistent,Gamble
3,15,310,Full,Tight,First,14,1,1,886,,Good,-30,Lose,135,Bias-Consistent,Gamble
3,15,310,Full,Tight,First,15,0,0,854,,Good,-5,Lose,85,Bias-Consistent,Sure
3,15,310,Full,Tight,First,16,1,0,751,,Bad,-110,Gain,135,Bias-Consistent,Sure
3,15,310,Full,Tight,First,17,1,1,1012,,Good,115,Gain,250,Bias-Inconsistent,Gamble
3,15,310,Full,Tight,First,18,0,1,1000,,Bad,-160,Lose,90,Bias-Inconsistent,Gamble
3,15,310,Full,Tight,First,19,1,0,1057,,Bad,-125,Lose,40,Bias-Inconsistent,Sure
3,15,310,Full,Tight,First,20,1,0,814,,Bad,-60,Gain,90,Bias-Consistent,Sure
3,15,310,Full,Tight,First,21,0,0,793,,Good,-30,Gain,140,Bias-Inconsistent,Sure
3,15,310,Full,Tight,First,22,0,1,824,,Bad,-100,Lose,40,Bias-Inconsistent,Gamble
3,15,310,Full,Tight,First,23,1,1,863,,Good,-15,Lose,25,Bias-Consistent,Gamble
3,15,310,Full,Tight,First,24,0,0,878,,Good,145,Lose,-25,Bias-Consistent,Sure
3,15,310,Full,Tight,First,25,0,0,721,,Good,-5,Gain,25,Bias-Inconsistent,Sure
3,15,310,Full,Tight,First,26,1,1,741,,Good,60,Lose,85,Bias-Consistent,Gamble
3,15,310,Full,Tight,First,27,1,0,618,,Bad,-80,Gain,135,Bias-Consistent,Sure
3,15,310,Full,Tight,First,28,0,0,727,,Good,95,Gain,185,Bias-Inconsistent,Sure
3,15,310,Full,Tight,First,29,1,1,712,,Good,115,Lose,300,Bias-Consistent,Gamble
3,15,310,Full,Tight,First,30,0,1,696,,Bad,-135,Lose,165,Bias-Inconsistent,Gamble
3,15,310,Full,Tight,First,31,1,0,520,,Bad,65,Gain,215,Bias-Consistent,Sure
3,15,310,Full,Tight,First,32,1,0,643,,Bad,-160,Gain,265,Bias-Consistent,Sure
3,15,310,Full,Tight,First,33,0,1,691,,Bad,-110,Lose,155,Bias-Inconsistent,Gamble
3,15,310,Full,Tight,First,34,0,0,483,,Good,175,Lose,105,Bias-Consistent,Sure
3,15,310,Full,Tight,First,35,0,1,1005,,Bad,25,Lose,130,Bias-Inconsistent,Gamble
3,15,310,Full,Tight,First,36,1,1,1121,,Good,130,Gain,260,Bias-Inconsistent,Gamble
3,15,310,Full,Tight,First,37,0,0,708,,Good,145,Gain,310,Bias-Inconsistent,Sure
3,15,310,Full,Tight,First,38,0,1,655,,Bad,-100,Gain,210,Bias-Consistent,Gamble
3,15,310,Full,Tight,First,39,0,1,1793,,Bad,65,Lose,275,Bias-Inconsistent,Gamble
3,15,310,Full,Tight,First,40,1,0,1212,,Bad,25,Gain,325,Bias-Consistent,Sure
3,15,310,Full,Tight,First,41,1,1,926,,Good,115,Gain,440,Bias-Inconsistent,Gamble
3,15,310,Full,Tight,First,42,,,0,,Good,95,Lose,340,Bias-Consistent,
3,15,310,Full,Tight,First,43,0,1,937,,Bad,-60,Lose,280,Bias-Inconsistent,Gamble
3,15,310,Full,Tight,First,44,1,1,1040,,Good,-5,Lose,275,Bias-Consistent,Gamble
3,15,310,Full,Tight,First,45,1,0,785,,Bad,-125,Gain,325,Bias-Consistent,Sure
3,15,310,Full,Tight,First,46,0,1,965,,Bad,-80,Lose,245,Bias-Inconsistent,Gamble
3,15,310,Full,Tight,First,47,1,0,1031,,Bad,-160,Lose,195,Bias-Inconsistent,Sure
3,15,310,Full,Tight,First,48,1,1,602,,Good,-15,Gain,180,Bias-Inconsistent,Gamble
3,15,310,Full,Tight,First,49,1,0,900,,Bad,-110,Gain,230,Bias-Consistent,Sure
3,15,310,Full,Tight,First,50,1,1,683,,Good,130,Lose,360,Bias-Consistent,Gamble
3,15,310,Full,Tight,First,51,1,1,902,,Good,175,Gain,535,Bias-Inconsistent,Gamble
3,15,310,Full,Tight,First,52,0,0,875,,Good,60,Gain,585,Bias-Inconsistent,Sure
3,15,310,Full,Tight,First,53,1,1,1091,,Good,-30,Lose,555,Bias-Consistent,Gamble
3,15,310,Full,Tight,First,54,1,0,973,,Bad,-135,Gain,605,Bias-Consistent,Sure
3,15,310,Full,Tight,First,55,0,0,1023,,Good,95,Gain,655,Bias-Inconsistent,Sure
3,15,310,Full,Tight,First,56,0,1,688,,Bad,-125,Lose,530,Bias-Inconsistent,Gamble
3,15,310,Full,Tight,First,57,1,0,631,,Bad,25,Lose,480,Bias-Inconsistent,Sure
3,15,310,Full,Tight,First,58,1,1,835,,Good,175,Lose,655,Bias-Consistent,Gamble
3,15,310,Full,Tight,First,59,1,1,699,,Good,-15,Lose,640,Bias-Consistent,Gamble
3,15,310,Full,Tight,First,60,1,1,815,,Good,145,Lose,785,Bias-Consistent,Gamble
3,15,310,Full,Tight,First,61,1,1,1124,,Good,130,Gain,915,Bias-Inconsistent,Gamble
3,15,310,Full,Tight,First,62,1,0,1126,,Bad,-135,Lose,865,Bias-Inconsistent,Sure
3,15,310,Full,Tight,First,63,1,1,483,,Good,-5,Gain,860,Bias-Inconsistent,Gamble
3,15,310,Full,Tight,First,64,1,0,706,,Bad,-100,Lose,810,Bias-Inconsistent,Sure
3,15,310,Full,Tight,First,65,1,0,678,,Bad,-80,Gain,860,Bias-Consistent,Sure
3,15,310,Full,Tight,First,66,1,0,625,,Bad,-110,Lose,810,Bias-Inconsistent,Sure
3,15,310,Full,Tight,First,67,1,0,579,,Bad,65,Gain,860,Bias-Consistent,Sure
3,15,310,Full,Tight,First,68,1,1,463,,Good,115,Lose,975,Bias-Consistent,Gamble
3,15,310,Full,Tight,First,69,1,1,665,,Good,60,Lose,1035,Bias-Consistent,Gamble
3,15,310,Full,Tight,First,70,1,0,632,,Bad,-160,Gain,1085,Bias-Consistent,Sure
3,15,310,Full,Tight,First,71,1,1,506,,Good,-30,Gain,1055,Bias-Inconsistent,Gamble
3,15,310,Full,Tight,First,72,1,0,488,,Bad,-60,Gain,1105,Bias-Consistent,Sure
3,16,311,Full,Tight,Last,1,,,0,,Bad,-125,Gain,100,Bias-Consistent,
3,16,311,Full,Tight,Last,2,0,0,892,,Good,175,Gain,150,Bias-Inconsistent,Sure
3,16,311,Full,Tight,Last,3,1,0,670,,Bad,-160,Lose,100,Bias-Inconsistent,Sure
3,16,311,Full,Tight,Last,4,1,0,646,,Bad,-135,Gain,150,Bias-Consistent,Sure
3,16,311,Full,Tight,Last,5,1,0,620,,Bad,25,Gain,200,Bias-Consistent,Sure
3,16,311,Full,Tight,Last,6,0,0,529,,Good,145,Gain,250,Bias-Inconsistent,Sure
3,16,311,Full,Tight,Last,7,0,0,573,,Good,95,Lose,200,Bias-Consistent,Sure
3,16,311,Full,Tight,Last,8,0,0,963,,Good,115,Gain,250,Bias-Inconsistent,Sure
3,16,311,Full,Tight,Last,9,0,0,532,,Good,-15,Gain,300,Bias-Inconsistent,Sure
3,16,311,Full,Tight,Last,10,1,0,814,,Bad,-60,Lose,250,Bias-Inconsistent,Sure
3,16,311,Full,Tight,Last,11,1,0,965,,Bad,65,Lose,200,Bias-Inconsistent,Sure
3,16,311,Full,Tight,Last,12,0,0,691,,Good,-5,Lose,150,Bias-Consistent,Sure
3,16,311,Full,Tight,Last,13,0,0,777,,Good,60,Gain,200,Bias-Inconsistent,Sure
3,16,311,Full,Tight,Last,14,0,1,673,,Bad,-110,Gain,90,Bias-Consistent,Gamble
3,16,311,Full,Tight,Last,15,1,1,556,,Good,130,Lose,220,Bias-Consistent,Gamble
3,16,311,Full,Tight,Last,16,0,1,545,,Bad,-80,Lose,140,Bias-Inconsistent,Gamble
3,16,311,Full,Tight,Last,17,1,0,735,,Bad,-100,Gain,190,Bias-Consistent,Sure
3,16,311,Full,Tight,Last,18,1,1,962,,Good,-30,Lose,160,Bias-Consistent,Gamble
3,16,311,Full,Tight,Last,19,1,1,1015,,Good,175,Lose,335,Bias-Consistent,Gamble
3,16,311,Full,Tight,Last,20,1,0,857,,Bad,-60,Gain,385,Bias-Consistent,Sure
3,16,311,Full,Tight,Last,21,1,0,781,,Bad,-80,Gain,435,Bias-Consistent,Sure
3,16,311,Full,Tight,Last,22,0,1,1230,,Bad,-135,Lose,300,Bias-Inconsistent,Gamble
3,16,311,Full,Tight,Last,23,1,0,748,,Bad,65,Gain,350,Bias-Consistent,Sure
3,16,311,Full,Tight,Last,24,0,0,1074,,Good,60,Lose,300,Bias-Consistent,Sure
3,16,311,Full,Tight,Last,25,1,1,918,,Good,115,Lose,415,Bias-Consistent,Gamble
3,16,311,Full,Tight,Last,26,0,0,793,,Good,95,Gain,465,Bias-Inconsistent,Sure
3,16,311,Full,Tight,Last,27,1,0,641,,Bad,-160,Gain,515,Bias-Consistent,Sure
3,16,311,Full,Tight,Last,28,1,1,1006,,Good,-15,Lose,500,Bias-Consistent,Gamble
3,16,311,Full,Tight,Last,29,0,0,778,,Good,-30,Gain,550,Bias-Inconsistent,Sure
3,16,311,Full,Tight,Last,30,1,0,716,,Bad,-125,Lose,500,Bias-Inconsistent,Sure
3,16,311,Full,Tight,Last,31,0,0,661,,Good,130,Gain,550,Bias-Inconsistent,Sure
3,16,311,Full,Tight,Last,32,0,1,1075,,Bad,-110,Lose,440,Bias-Inconsistent,Gamble
3,16,311,Full,Tight,Last,33,0,0,1353,,Good,145,Lose,390,Bias-Consistent,Sure
3,16,311,Full,Tight,Last,34,0,1,980,,Bad,-100,Lose,290,Bias-Inconsistent,Gamble
3,16,311,Full,Tight,Last,35,0,0,753,,Good,-5,Gain,340,Bias-Inconsistent,Sure
3,16,311,Full,Tight,Last,36,0,1,1428,,Bad,25,Lose,365,Bias-Inconsistent,Gamble
3,16,311,Full,Tight,Last,37,1,0,1825,,Bad,25,Gain,415,Bias-Consistent,Sure
3,16,311,Full,Tight,Last,38,0,1,1488,,Bad,-160,Lose,255,Bias-Inconsistent,Gamble
3,16,311,Full,Tight,Last,39,1,0,745,,Bad,-110,Gain,305,Bias-Consistent,Sure
3,16,311,Full,Tight,Last,40,1,1,428,,Good,-15,Gain,290,Bias-Inconsistent,Gamble
3,16,311,Full,Tight,Last,41,0,1,1182,,Bad,65,Lose,355,Bias-Inconsistent,Gamble
3,16,311,Full,Tight,Last,42,0,1,1413,,Bad,-60,Lose,295,Bias-Inconsistent,Gamble
3,16,311,Full,Tight,Last,43,,,0,,Good,-5,Lose,195,Bias-Consistent,
3,16,311,Full,Tight,Last,44,1,0,733,,Bad,-80,Lose,145,Bias-Inconsistent,Sure
3,16,311,Full,Tight,Last,45,1,1,1420,,Good,-30,Lose,115,Bias-Consistent,Gamble
3,16,311,Full,Tight,Last,46,0,0,859,,Good,145,Gain,165,Bias-Inconsistent,Sure
3,16,311,Full,Tight,Last,47,0,0,811,,Good,175,Gain,215,Bias-Inconsistent,Sure
3,16,311,Full,Tight,Last,48,1,0,1061,,Bad,-135,Gain,265,Bias-Consistent,Sure
3,16,311,Full,Tight,Last,49,0,0,868,,Good,60,Gain,315,Bias-Inconsistent,Sure
3,16,311,Full,Tight,Last,50,1,1,1072,,Good,95,Lose,410,Bias-Consistent,Gamble
3,16,311,Full,Tight,Last,51,1,1,801,,Good,130,Lose,540,Bias-Consistent,Gamble
3,16,311,Full,Tight,Last,52,1,0,865,,Bad,-125,Gain,590,Bias-Consistent,Sure
3,16,311,Full,Tight,Last,53,1,0,747,,Bad,-100,Gain,640,Bias-Consistent,Sure
3,16,311,Full,Tight,Last,54,0,0,790,,Good,115,Gain,690,Bias-Inconsistent,Sure
3,16,311,Full,Tight,Last,55,0,1,705,,Bad,-100,Lose,590,Bias-Inconsistent,Gamble
3,16,311,Full,Tight,Last,56,0,1,1098,,Bad,-110,Lose,480,Bias-Inconsistent,Gamble
3,16,311,Full,Tight,Last,57,0,1,1463,,Bad,-125,Lose,355,Bias-Inconsistent,Gamble
3,16,311,Full,Tight,Last,58,1,0,684,,Bad,-135,Lose,305,Bias-Inconsistent,Sure
3,16,311,Full,Tight,Last,59,0,0,1285,,Good,175,Lose,255,Bias-Consistent,Sure
3,16,311,Full,Tight,Last,60,0,0,1245,,Good,-5,Gain,305,Bias-Inconsistent,Sure
3,16,311,Full,Tight,Last,61,1,1,1111,,Good,60,Lose,365,Bias-Consistent,Gamble
3,16,311,Full,Tight,Last,62,0,0,1805,,Good,115,Lose,315,Bias-Consistent,Sure
3,16,311,Full,Tight,Last,63,0,1,635,,Bad,-60,Gain,255,Bias-Consistent,Gamble
3,16,311,Full,Tight,Last,64,0,0,610,,Good,-30,Gain,305,Bias-Inconsistent,Sure
3,16,311,Full,Tight,Last,65,1,0,790,,Bad,65,Gain,355,Bias-Consistent,Sure
3,16,311,Full,Tight,Last,66,0,0,732,,Good,95,Gain,405,Bias-Inconsistent,Sure
3,16,311,Full,Tight,Last,67,0,0,546,,Good,130,Gain,455,Bias-Inconsistent,Sure
3,16,311,Full,Tight,Last,68,1,1,938,,Good,-15,Lose,440,Bias-Consistent,Gamble
3,16,311,Full,Tight,Last,69,1,0,748,,Bad,-80,Gain,490,Bias-Consistent,Sure
3,16,311,Full,Tight,Last,70,0,1,770,,Bad,25,Lose,515,Bias-Inconsistent,Gamble
3,16,311,Full,Tight,Last,71,1,1,931,,Good,145,Lose,660,Bias-Consistent,Gamble
3,16,311,Full,Tight,Last,72,1,0,708,,Bad,-160,Gain,710,Bias-Consistent,Sure
3,25,312,Full,Standard,First,1,1,1,928,,Good,180,Lose,380,Bias-Consistent,Gamble
3,25,312,Full,Standard,First,2,0,0,850,,Good,195,Gain,430,Bias-Inconsistent,Sure
3,25,312,Full,Standard,First,3,1,1,595,,Good,160,Lose,590,Bias-Consistent,Gamble
3,25,312,Full,Standard,First,4,1,1,1102,,Good,115,Gain,705,Bias-Inconsistent,Gamble
3,25,312,Full,Standard,First,5,0,1,880,,Bad,100,Lose,805,Bias-Inconsistent,Gamble
3,25,312,Full,Standard,First,6,0,1,780,,Bad,75,Gain,880,Bias-Consistent,Gamble
3,25,312,Full,Standard,First,7,0,1,639,,Bad,-125,Gain,755,Bias-Consistent,Gamble
3,25,312,Full,Standard,First,8,0,1,721,,Bad,-70,Lose,685,Bias-Inconsistent,Gamble
3,25,312,Full,Standard,First,9,1,1,1083,,Good,-30,Lose,655,Bias-Consistent,Gamble
3,25,312,Full,Standard,First,10,0,0,716,,Good,120,Gain,705,Bias-Inconsistent,Sure
3,25,312,Full,Standard,First,11,1,1,764,,Good,40,Gain,745,Bias-Inconsistent,Gamble
3,25,312,Full,Standard,First,12,0,1,1051,,Bad,-60,Lose,685,Bias-Inconsistent,Gamble
3,25,312,Full,Standard,First,13,0,1,1001,,Bad,-110,Gain,575,Bias-Consistent,Gamble
3,25,312,Full,Standard,First,14,1,0,607,,Bad,-170,Gain,625,Bias-Consistent,Sure
3,25,312,Full,Standard,First,15,1,0,646,,Bad,-130,Gain,675,Bias-Consistent,Sure
3,25,312,Full,Standard,First,16,0,1,1070,,Bad,-180,Lose,495,Bias-Inconsistent,Gamble
3,25,312,Full,Standard,First,17,0,0,638,,Good,-55,Gain,545,Bias-Inconsistent,Sure
3,25,312,Full,Standard,First,18,0,0,1014,,Good,-50,Lose,495,Bias-Consistent,Sure
3,25,312,Full,Standard,First,19,1,0,1180,,Bad,-170,Lose,445,Bias-Inconsistent,Sure
3,25,312,Full,Standard,First,20,1,0,737,,Bad,-180,Gain,495,Bias-Consistent,Sure
3,25,312,Full,Standard,First,21,1,0,666,,Bad,-60,Gain,545,Bias-Consistent,Sure
3,25,312,Full,Standard,First,22,0,0,697,,Good,-30,Gain,595,Bias-Inconsistent,Sure
3,25,312,Full,Standard,First,23,1,0,519,,Bad,100,Gain,645,Bias-Consistent,Sure
3,25,312,Full,Standard,First,24,0,1,1340,,Bad,-130,Lose,515,Bias-Inconsistent,Gamble
3,25,312,Full,Standard,First,25,0,0,888,,Good,40,Lose,465,Bias-Consistent,Sure
3,25,312,Full,Standard,First,26,0,0,839,,Good,-50,Gain,515,Bias-Inconsistent,Sure
3,25,312,Full,Standard,First,27,0,0,576,,Good,180,Gain,565,Bias-Inconsistent,Sure
3,25,312,Full,Standard,First,28,0,0,751,,Good,120,Lose,515,Bias-Consistent,Sure
3,25,312,Full,Standard,First,29,0,0,857,,Good,160,Gain,565,Bias-Inconsistent,Sure
3,25,312,Full,Standard,First,30,0,1,856,,Bad,-125,Lose,440,Bias-Inconsistent,Gamble
3,25,312,Full,Standard,First,31,0,1,939,,Bad,-70,Gain,370,Bias-Consistent,Gamble
3,25,312,Full,Standard,First,32,1,0,1216,,Bad,-110,Lose,320,Bias-Inconsistent,Sure
3,25,312,Full,Standard,First,33,0,0,1205,,Good,195,Lose,270,Bias-Consistent,Sure
3,25,312,Full,Standard,First,34,1,1,976,,Good,-55,Lose,215,Bias-Consistent,Gamble
3,25,312,Full,Standard,First,35,0,0,866,,Good,115,Lose,165,Bias-Consistent,Sure
3,25,312,Full,Standard,First,36,0,1,959,,Bad,75,Lose,240,Bias-Inconsistent,Gamble
3,25,312,Full,Standard,First,37,1,1,1193,,Good,-50,Lose,190,Bias-Consistent,Gamble
3,25,312,Full,Standard,First,38,1,0,830,,Bad,-70,Lose,140,Bias-Inconsistent,Sure
3,25,312,Full,Standard,First,39,0,0,695,,Good,115,Gain,190,Bias-Inconsistent,Sure
3,25,312,Full,Standard,First,40,1,1,824,,Good,195,Gain,385,Bias-Inconsistent,Gamble
3,25,312,Full,Standard,First,41,0,0,760,,Good,40,Gain,435,Bias-Inconsistent,Sure
3,25,312,Full,Standard,First,42,1,1,735,,Good,160,Lose,595,Bias-Consistent,Gamble
3,25,312,Full,Standard,First,43,1,0,915,,Bad,100,Lose,545,Bias-Inconsistent,Sure
3,25,312,Full,Standard,First,44,0,1,724,,Bad,-180,Lose,365,Bias-Inconsistent,Gamble
3,25,312,Full,Standard,First,45,1,0,808,,Bad,75,Gain,415,Bias-Consistent,Sure
3,25,312,Full,Standard,First,46,1,0,690,,Bad,-110,Gain,465,Bias-Consistent,Sure
3,25,312,Full,Standard,First,47,1,0,562,,Bad,-170,Gain,515,Bias-Consistent,Sure
3,25,312,Full,Standard,First,48,0,0,880,,Good,-30,Lose,465,Bias-Consistent,Sure
3,25,312,Full,Standard,First,49,1,0,822,,Bad,-125,Gain,515,Bias-Consistent,Sure
3,25,312,Full,Standard,First,50,1,0,1133,,Bad,-60,Lose,465,Bias-Inconsistent,Sure
3,25,312,Full,Standard,First,51,0,0,658,,Good,120,Gain,515,Bias-Inconsistent,Sure
3,25,312,Full,Standard,First,52,0,0,602,,Good,-55,Gain,565,Bias-Inconsistent,Sure
3,25,312,Full,Standard,First,53,1,0,616,,Bad,-130,Gain,615,Bias-Consistent,Sure
3,25,312,Full,Standard,First,54,0,0,852,,Good,180,Lose,565,Bias-Consistent,Sure
3,25,312,Full,Standard,First,55,0,1,858,,Bad,-125,Lose,440,Bias-Inconsistent,Gamble
3,25,312,Full,Standard,First,56,0,0,537,,Good,160,Gain,490,Bias-Inconsistent,Sure
3,25,312,Full,Standard,First,57,1,0,778,,Bad,-110,Lose,440,Bias-Inconsistent,Sure
3,25,312,Full,Standard,First,58,0,0,850,,Good,195,Lose,390,Bias-Consistent,Sure
3,25,312,Full,Standard,First,59,1,0,754,,Bad,100,Gain,440,Bias-Consistent,Sure
3,25,312,Full,Standard,First,60,1,1,903,,Good,40,Lose,480,Bias-Consistent,Gamble
3,25,312,Full,Standard,First,61,0,0,807,,Good,-50,Gain,530,Bias-Inconsistent,Sure
3,25,312,Full,Standard,First,62,1,0,603,,Bad,-180,Gain,580,Bias-Consistent,Sure
3,25,312,Full,Standard,First,63,1,0,950,,Bad,-170,Lose,530,Bias-Inconsistent,Sure
3,25,312,Full,Standard,First,64,1,0,668,,Bad,-130,Lose,480,Bias-Inconsistent,Sure
3,25,312,Full,Standard,First,65,1,0,854,,Bad,-60,Gain,530,Bias-Consistent,Sure
3,25,312,Full,Standard,First,66,1,1,947,,Good,115,Lose,645,Bias-Consistent,Gamble
3,25,312,Full,Standard,First,67,1,0,730,,Bad,75,Lose,595,Bias-Inconsistent,Sure
3,25,312,Full,Standard,First,68,1,0,608,,Bad,-70,Gain,645,Bias-Consistent,Sure
3,25,312,Full,Standard,First,69,1,1,980,,Good,-55,Lose,590,Bias-Consistent,Gamble
3,25,312,Full,Standard,First,70,0,0,654,,Good,180,Gain,640,Bias-Inconsistent,Sure
3,25,312,Full,Standard,First,71,0,0,611,,Good,-30,Gain,690,Bias-Inconsistent,Sure
3,25,312,Full,Standard,First,72,0,0,1098,,Good,120,Lose,640,Bias-Consistent,Sure
3,28,313,Full,Tight,Last,1,0,1,1273,,Bad,-60,Lose,140,Bias-Inconsistent,Gamble
3,28,313,Full,Tight,Last,2,0,0,717,,Good,175,Gain,190,Bias-Inconsistent,Sure
3,28,313,Full,Tight,Last,3,0,0,1255,,Good,130,Lose,140,Bias-Consistent,Sure
3,28,313,Full,Tight,Last,4,1,1,982,,Good,-30,Lose,110,Bias-Consistent,Gamble
3,28,313,Full,Tight,Last,5,0,0,1294,,Good,-5,Lose,60,Bias-Consistent,Sure
3,28,313,Full,Tight,Last,6,0,1,920,,Bad,-160,Lose,-100,Bias-Inconsistent,Gamble
3,28,313,Full,Tight,Last,7,0,1,916,,Bad,-80,Lose,-180,Bias-Inconsistent,Gamble
3,28,313,Full,Tight,Last,8,1,0,861,,Bad,-110,Gain,-130,Bias-Consistent,Sure
3,28,313,Full,Tight,Last,9,0,1,1029,,Bad,-125,Gain,-255,Bias-Consistent,Gamble
3,28,313,Full,Tight,Last,10,1,1,997,,Good,60,Gain,-195,Bias-Inconsistent,Gamble
3,28,313,Full,Tight,Last,11,1,0,855,,Bad,25,Gain,-145,Bias-Consistent,Sure
3,28,313,Full,Tight,Last,12,1,1,869,,Good,145,Gain,0,Bias-Inconsistent,Gamble
3,28,313,Full,Tight,Last,13,0,0,936,,Good,115,Gain,50,Bias-Inconsistent,Sure
3,28,313,Full,Tight,Last,14,1,1,866,,Good,95,Lose,145,Bias-Consistent,Gamble
3,28,313,Full,Tight,Last,15,1,0,794,,Bad,-135,Gain,195,Bias-Consistent,Sure
3,28,313,Full,Tight,Last,16,1,0,657,,Bad,-100,Gain,245,Bias-Consistent,Sure
3,28,313,Full,Tight,Last,17,1,0,1289,,Bad,65,Lose,195,Bias-Inconsistent,Sure
3,28,313,Full,Tight,Last,18,0,0,724,,Good,-15,Gain,245,Bias-Inconsistent,Sure
3,28,313,Full,Tight,Last,19,1,0,594,,Bad,65,Gain,295,Bias-Consistent,Sure
3,28,313,Full,Tight,Last,20,1,1,879,,Good,175,Lose,470,Bias-Consistent,Gamble
3,28,313,Full,Tight,Last,21,0,0,1057,,Good,-15,Lose,420,Bias-Consistent,Sure
3,28,313,Full,Tight,Last,22,0,1,987,,Bad,-100,Lose,320,Bias-Inconsistent,Gamble
3,28,313,Full,Tight,Last,23,1,0,594,,Bad,-160,Gain,370,Bias-Consistent,Sure
3,28,313,Full,Tight,Last,24,1,1,1199,,Good,145,Lose,515,Bias-Consistent,Gamble
3,28,313,Full,Tight,Last,25,1,0,565,,Bad,-80,Gain,565,Bias-Consistent,Sure
3,28,313,Full,Tight,Last,26,0,0,545,,Good,130,Gain,615,Bias-Inconsistent,Sure
3,28,313,Full,Tight,Last,27,1,1,1094,,Good,-30,Gain,585,Bias-Inconsistent,Gamble
3,28,313,Full,Tight,Last,28,0,1,1052,,Bad,-125,Lose,460,Bias-Inconsistent,Gamble
3,28,313,Full,Tight,Last,29,1,0,733,,Bad,-60,Gain,510,Bias-Consistent,Sure
3,28,313,Full,Tight,Last,30,0,1,959,,Bad,-135,Lose,375,Bias-Inconsistent,Gamble
3,28,313,Full,Tight,Last,31,1,1,793,,Good,115,Lose,490,Bias-Consistent,Gamble
3,28,313,Full,Tight,Last,32,0,0,594,,Good,-5,Gain,540,Bias-Inconsistent,Sure
3,28,313,Full,Tight,Last,33,0,0,1293,,Good,60,Lose,490,Bias-Consistent,Sure
3,28,313,Full,Tight,Last,34,0,0,516,,Good,95,Gain,540,Bias-Inconsistent,Sure
3,28,313,Full,Tight,Last,35,0,1,1173,,Bad,-110,Lose,430,Bias-Inconsistent,Gamble
3,28,313,Full,Tight,Last,36,0,1,1435,,Bad,25,Lose,455,Bias-Inconsistent,Gamble
3,28,313,Full,Tight,Last,37,0,1,1055,,Bad,65,Lose,520,Bias-Inconsistent,Gamble
3,28,313,Full,Tight,Last,38,0,0,539,,Good,175,Gain,570,Bias-Inconsistent,Sure
3,28,313,Full,Tight,Last,39,1,0,1263,,Bad,-160,Lose,520,Bias-Inconsistent,Sure
3,28,313,Full,Tight,Last,40,0,1,1338,,Bad,25,Gain,545,Bias-Consistent,Gamble
3,28,313,Full,Tight,Last,41,0,0,1305,,Good,115,Gain,595,Bias-Inconsistent,Sure
3,28,313,Full,Tight,Last,42,0,1,1531,,Bad,-60,Lose,535,Bias-Inconsistent,Gamble
3,28,313,Full,Tight,Last,43,1,1,1592,,Good,95,Lose,630,Bias-Consistent,Gamble
3,28,313,Full,Tight,Last,44,0,0,1071,,Good,60,Gain,680,Bias-Inconsistent,Sure
3,28,313,Full,Tight,Last,45,1,0,1055,,Bad,-135,Gain,730,Bias-Consistent,Sure
3,28,313,Full,Tight,Last,46,1,1,1402,,Good,130,Lose,860,Bias-Consistent,Gamble
3,28,313,Full,Tight,Last,47,1,0,779,,Bad,-100,Gain,910,Bias-Consistent,Sure
3,28,313,Full,Tight,Last,48,1,1,1462,,Good,-30,Lose,880,Bias-Consistent,Gamble
3,28,313,Full,Tight,Last,49,0,0,1388,,Good,-5,Lose,830,Bias-Consistent,Sure
3,28,313,Full,Tight,Last,50,0,0,728,,Good,145,Gain,880,Bias-Inconsistent,Sure
3,28,313,Full,Tight,Last,51,0,0,1412,,Good,-15,Gain,930,Bias-Inconsistent,Sure
3,28,313,Full,Tight,Last,52,1,0,1045,,Bad,-110,Gain,980,Bias-Consistent,Sure
3,28,313,Full,Tight,Last,53,0,1,906,,Bad,-125,Gain,855,Bias-Consistent,Gamble
3,28,313,Full,Tight,Last,54,0,1,835,,Bad,-80,Lose,775,Bias-Inconsistent,Gamble
3,28,313,Full,Tight,Last,55,0,1,860,,Bad,-160,Gain,615,Bias-Consistent,Gamble
3,28,313,Full,Tight,Last,56,0,1,1059,,Bad,-135,Lose,480,Bias-Inconsistent,Gamble
3,28,313,Full,Tight,Last,57,1,1,823,,Good,60,Lose,540,Bias-Consistent,Gamble
3,28,313,Full,Tight,Last,58,0,0,542,,Good,130,Gain,590,Bias-Inconsistent,Sure
3,28,313,Full,Tight,Last,59,0,1,724,,Bad,25,Lose,615,Bias-Inconsistent,Gamble
3,28,313,Full,Tight,Last,60,1,1,785,,Good,145,Lose,760,Bias-Consistent,Gamble
3,28,313,Full,Tight,Last,61,1,0,538,,Bad,-80,Gain,810,Bias-Consistent,Sure
3,28,313,Full,Tight,Last,62,0,0,501,,Good,95,Gain,860,Bias-Inconsistent,Sure
3,28,313,Full,Tight,Last,63,0,0,1302,,Good,115,Lose,810,Bias-Consistent,Sure
3,28,313,Full,Tight,Last,64,0,1,729,,Bad,-125,Lose,685,Bias-Inconsistent,Gamble
3,28,313,Full,Tight,Last,65,1,1,762,,Good,-15,Lose,670,Bias-Consistent,Gamble
3,28,313,Full,Tight,Last,66,0,0,701,,Good,-5,Gain,720,Bias-Inconsistent,Sure
3,28,313,Full,Tight,Last,67,0,1,755,,Bad,-110,Lose,610,Bias-Inconsistent,Gamble
3,28,313,Full,Tight,Last,68,1,1,1138,,Good,-30,Gain,580,Bias-Inconsistent,Gamble
3,28,313,Full,Tight,Last,69,1,0,826,,Bad,-60,Gain,630,Bias-Consistent,Sure
3,28,313,Full,Tight,Last,70,1,1,848,,Good,175,Lose,805,Bias-Consistent,Gamble
3,28,313,Full,Tight,Last,71,1,0,590,,Bad,65,Gain,855,Bias-Consistent,Sure
3,28,313,Full,Tight,Last,72,1,0,1255,,Bad,-100,Lose,805,Bias-Inconsistent,Sure
3,37,314,Full,Standard,First,1,0,0,1033,,Good,160,Lose,150,Bias-Consistent,Sure
3,37,314,Full,Standard,First,2,1,0,835,,Bad,-170,Gain,200,Bias-Consistent,Sure
3,37,314,Full,Standard,First,3,0,0,721,,Good,195,Gain,250,Bias-Inconsistent,Sure
3,37,314,Full,Standard,First,4,1,1,452,,Good,-30,Lose,220,Bias-Consistent,Gamble
3,37,314,Full,Standard,First,5,0,0,732,,Good,120,Gain,270,Bias-Inconsistent,Sure
3,37,314,Full,Standard,First,6,0,1,809,,Bad,-125,Gain,145,Bias-Consistent,Gamble
3,37,314,Full,Standard,First,7,0,1,926,,Bad,-180,Lose,-35,Bias-Inconsistent,Gamble
3,37,314,Full,Standard,First,8,0,1,963,,Bad,-130,Gain,-165,Bias-Consistent,Gamble
3,37,314,Full,Standard,First,9,0,1,814,,Bad,-60,Lose,-225,Bias-Inconsistent,Gamble
3,37,314,Full,Standard,First,10,0,0,850,,Good,-55,Gain,-175,Bias-Inconsistent,Sure
3,37,314,Full,Standard,First,11,1,1,971,,Good,-50,Lose,-225,Bias-Consistent,Gamble
3,37,314,Full,Standard,First,12,1,1,1055,,Good,40,Gain,-185,Bias-Inconsistent,Gamble
3,37,314,Full,Standard,First,13,1,1,783,,Good,115,Gain,-70,Bias-Inconsistent,Gamble
3,37,314,Full,Standard,First,14,0,1,853,,Bad,100,Lose,30,Bias-Inconsistent,Gamble
3,37,314,Full,Standard,First,15,1,1,847,,Good,180,Lose,210,Bias-Consistent,Gamble
3,37,314,Full,Standard,First,16,0,1,802,,Bad,-70,Lose,140,Bias-Inconsistent,Gamble
3,37,314,Full,Standard,First,17,1,0,1118,,Bad,-110,Gain,190,Bias-Consistent,Sure
3,37,314,Full,Standard,First,18,0,1,873,,Bad,75,Gain,265,Bias-Consistent,Gamble
3,37,314,Full,Standard,First,19,0,1,1332,,Bad,-170,Lose,95,Bias-Inconsistent,Gamble
3,37,314,Full,Standard,First,20,1,0,1320,,Bad,-180,Gain,145,Bias-Consistent,Sure
3,37,314,Full,Standard,First,21,0,1,1366,,Bad,-130,Lose,15,Bias-Inconsistent,Gamble
3,37,314,Full,Standard,First,22,1,1,1258,,Good,-30,Gain,-15,Bias-Inconsistent,Gamble
3,37,314,Full,Standard,First,23,1,1,975,,Good,-50,Gain,-65,Bias-Inconsistent,Gamble
3,37,314,Full,Standard,First,24,1,0,825,,Bad,100,Gain,-15,Bias-Consistent,Sure
3,37,314,Full,Standard,First,25,1,1,1495,,Good,160,Gain,145,Bias-Inconsistent,Gamble
3,37,314,Full,Standard,First,26,1,1,1113,,Good,120,Lose,265,Bias-Consistent,Gamble
3,37,314,Full,Standard,First,27,0,1,1102,,Bad,-125,Lose,140,Bias-Inconsistent,Gamble
3,37,314,Full,Standard,First,28,1,0,1188,,Bad,-60,Gain,190,Bias-Consistent,Sure
3,37,314,Full,Standard,First,29,0,0,1604,,Good,195,Lose,140,Bias-Consistent,Sure
3,37,314,Full,Standard,First,30,0,1,1706,,Bad,-70,Gain,70,Bias-Consistent,Gamble
3,37,314,Full,Standard,First,31,1,1,1306,,Good,-55,Lose,15,Bias-Consistent,Gamble
3,37,314,Full,Standard,First,32,1,1,1159,,Good,115,Lose,130,Bias-Consistent,Gamble
3,37,314,Full,Standard,First,33,0,1,1114,,Bad,75,Lose,205,Bias-Inconsistent,Gamble
3,37,314,Full,Standard,First,34,0,1,1867,,Bad,-110,Lose,95,Bias-Inconsistent,Gamble
3,37,314,Full,Standard,First,35,1,1,1123,,Good,40,Lose,135,Bias-Consistent,Gamble
3,37,314,Full,Standard,First,36,0,0,1000,,Good,180,Gain,185,Bias-Inconsistent,Sure
3,37,314,Full,Standard,First,37,1,1,1355,,Good,120,Gain,305,Bias-Inconsistent,Gamble
3,37,314,Full,Standard,First,38,1,0,891,,Bad,-125,Gain,355,Bias-Consistent,Sure
3,37,314,Full,Standard,First,39,1,1,1165,,Good,40,Gain,395,Bias-Inconsistent,Gamble
3,37,314,Full,Standard,First,40,1,1,961,,Good,195,Gain,590,Bias-Inconsistent,Gamble
3,37,314,Full,Standard,First,41,1,1,967,,Good,180,Lose,770,Bias-Consistent,Gamble
3,37,314,Full,Standard,First,42,1,1,751,,Good,-55,Gain,715,Bias-Inconsistent,Gamble
3,37,314,Full,Standard,First,43,1,0,131,,Bad,100,Lose,665,Bias-Inconsistent,Sure
3,37,314,Full,Standard,First,44,1,1,975,,Good,115,Gain,780,Bias-Inconsistent,Gamble
3,37,314,Full,Standard,First,45,1,1,777,,Good,160,Lose,940,Bias-Consistent,Gamble
3,37,314,Full,Standard,First,46,1,0,1073,,Bad,-170,Gain,990,Bias-Consistent,Sure
3,37,314,Full,Standard,First,47,1,0,1223,,Bad,-130,Gain,1040,Bias-Consistent,Sure
3,37,314,Full,Standard,First,48,1,0,1435,,Bad,75,Gain,1090,Bias-Consistent,Sure
3,37,314,Full,Standard,First,49,1,1,883,,Good,-30,Lose,1060,Bias-Consistent,Gamble
3,37,314,Full,Standard,First,50,1,0,1204,,Bad,-70,Lose,1010,Bias-Inconsistent,Sure
3,37,314,Full,Standard,First,51,1,0,1249,,Bad,-60,Lose,960,Bias-Inconsistent,Sure
3,37,314,Full,Standard,First,52,1,0,1212,,Bad,-110,Gain,1010,Bias-Consistent,Sure
3,37,314,Full,Standard,First,53,0,0,147,,Good,-50,Lose,960,Bias-Consistent,Sure
3,37,314,Full,Standard,First,54,1,0,1448,,Bad,-180,Lose,910,Bias-Inconsistent,Sure
3,37,314,Full,Standard,First,55,1,0,1387,,Bad,-60,Gain,960,Bias-Consistent,Sure
3,37,314,Full,Standard,First,56,0,0,101,,Good,-55,Lose,910,Bias-Consistent,Sure
3,37,314,Full,Standard,First,57,0,1,825,,Bad,-170,Lose,740,Bias-Inconsistent,Gamble
3,37,314,Full,Standard,First,58,1,1,1273,,Good,-30,Gain,710,Bias-Inconsistent,Gamble
3,37,314,Full,Standard,First,59,1,1,1211,,Good,180,Gain,890,Bias-Inconsistent,Gamble
3,37,314,Full,Standard,First,60,1,0,1113,,Bad,75,Lose,840,Bias-Inconsistent,Sure
3,37,314,Full,Standard,First,61,1,0,1323,,Bad,100,Gain,890,Bias-Consistent,Sure
3,37,314,Full,Standard,First,62,1,1,1071,,Good,40,Lose,930,Bias-Consistent,Gamble
3,37,314,Full,Standard,First,63,1,1,650,,Good,195,Lose,1125,Bias-Consistent,Gamble
3,37,314,Full,Standard,First,64,1,0,1052,,Bad,-125,Lose,1075,Bias-Inconsistent,Sure
3,37,314,Full,Standard,First,65,1,1,622,,Good,-50,Gain,1025,Bias-Inconsistent,Gamble
3,37,314,Full,Standard,First,66,0,1,1261,,Bad,-130,Lose,895,Bias-Inconsistent,Gamble
3,37,314,Full,Standard,First,67,1,0,1206,,Bad,-180,Gain,945,Bias-Consistent,Sure
3,37,314,Full,Standard,First,68,1,1,575,,Good,120,Lose,1065,Bias-Consistent,Gamble
3,37,314,Full,Standard,First,69,1,0,868,,Bad,-70,Gain,1115,Bias-Consistent,Sure
3,37,314,Full,Standard,First,70,1,1,1446,,Good,115,Lose,1230,Bias-Consistent,Gamble
3,37,314,Full,Standard,First,71,1,1,859,,Good,160,Gain,1390,Bias-Inconsistent,Gamble
3,37,314,Full,Standard,First,72,1,0,1337,,Bad,-110,Lose,1340,Bias-Inconsistent,Sure
3,38,315,Full,Standard,Last,1,0,0,830,,Good,120,Gain,250,Bias-Inconsistent,Sure
3,38,315,Full,Standard,Last,2,1,1,358,,Good,-50,Lose,200,Bias-Consistent,Gamble
3,38,315,Full,Standard,Last,3,1,0,493,,Bad,-110,Gain,250,Bias-Consistent,Sure
3,38,315,Full,Standard,Last,4,1,0,498,,Bad,-125,Gain,300,Bias-Consistent,Sure
3,38,315,Full,Standard,Last,5,1,1,1034,,Good,160,Lose,460,Bias-Consistent,Gamble
3,38,315,Full,Standard,Last,6,0,0,799,,Good,115,Gain,510,Bias-Inconsistent,Sure
3,38,315,Full,Standard,Last,7,0,1,299,,Bad,100,Lose,610,Bias-Inconsistent,Gamble
3,38,315,Full,Standard,Last,8,0,0,879,,Good,-55,Gain,660,Bias-Inconsistent,Sure
3,38,315,Full,Standard,Last,9,0,1,304,,Bad,-170,Gain,490,Bias-Consistent,Gamble
3,38,315,Full,Standard,Last,10,1,0,672,,Bad,-70,Lose,440,Bias-Inconsistent,Sure
3,38,315,Full,Standard,Last,11,0,1,263,,Bad,75,Gain,515,Bias-Consistent,Gamble
3,38,315,Full,Standard,Last,12,1,1,545,,Good,40,Gain,555,Bias-Inconsistent,Gamble
3,38,315,Full,Standard,Last,13,0,0,333,,Good,-30,Lose,505,Bias-Consistent,Sure
3,38,315,Full,Standard,Last,14,0,1,504,,Bad,-180,Lose,325,Bias-Inconsistent,Gamble
3,38,315,Full,Standard,Last,15,0,1,748,,Bad,-60,Lose,265,Bias-Inconsistent,Gamble
3,38,315,Full,Standard,Last,16,0,0,784,,Good,180,Lose,215,Bias-Consistent,Sure
3,38,315,Full,Standard,Last,17,0,1,1133,,Bad,-130,Gain,85,Bias-Consistent,Gamble
3,38,315,Full,Standard,Last,18,0,0,618,,Good,195,Gain,135,Bias-Inconsistent,Sure
3,38,315,Full,Standard,Last,19,0,0,500,,Good,160,Gain,185,Bias-Inconsistent,Sure
3,38,315,Full,Standard,Last,20,0,0,1114,,Good,180,Gain,235,Bias-Inconsistent,Sure
3,38,315,Full,Standard,Last,21,1,1,939,,Good,40,Lose,275,Bias-Consistent,Gamble
3,38,315,Full,Standard,Last,22,1,1,787,,Good,-50,Gain,225,Bias-Inconsistent,Gamble
3,38,315,Full,Standard,Last,23,0,0,572,,Good,-30,Gain,275,Bias-Inconsistent,Sure
3,38,315,Full,Standard,Last,24,0,1,767,,Bad,-170,Lose,105,Bias-Inconsistent,Gamble
3,38,315,Full,Standard,Last,25,1,0,592,,Bad,-180,Gain,155,Bias-Consistent,Sure
3,38,315,Full,Standard,Last,26,0,1,794,,Bad,-125,Lose,30,Bias-Inconsistent,Gamble
3,38,315,Full,Standard,Last,27,1,0,944,,Bad,75,Lose,-20,Bias-Inconsistent,Sure
3,38,315,Full,Standard,Last,28,0,1,1033,,Bad,-110,Lose,-130,Bias-Inconsistent,Gamble
3,38,315,Full,Standard,Last,29,0,1,1153,,Bad,100,Gain,-30,Bias-Consistent,Gamble
3,38,315,Full,Standard,Last,30,0,0,1541,,Good,120,Lose,-80,Bias-Consistent,Sure
3,38,315,Full,Standard,Last,31,1,1,1016,,Good,115,Lose,35,Bias-Consistent,Gamble
3,38,315,Full,Standard,Last,32,1,0,626,,Bad,-70,Gain,85,Bias-Consistent,Sure
3,38,315,Full,Standard,Last,33,1,0,787,,Bad,-60,Gain,135,Bias-Consistent,Sure
3,38,315,Full,Standard,Last,34,1,1,802,,Good,-55,Lose,80,Bias-Consistent,Gamble
3,38,315,Full,Standard,Last,35,1,1,1404,,Good,195,Lose,275,Bias-Consistent,Gamble
3,38,315,Full,Standard,Last,36,1,0,1023,,Bad,-130,Lose,225,Bias-Inconsistent,Sure
3,38,315,Full,Standard,Last,37,1,0,829,,Bad,-110,Gain,275,Bias-Consistent,Sure
3,38,315,Full,Standard,Last,38,1,1,798,,Good,160,Lose,435,Bias-Consistent,Gamble
3,38,315,Full,Standard,Last,39,1,0,650,,Bad,-125,Gain,485,Bias-Consistent,Sure
3,38,315,Full,Standard,Last,40,0,1,889,,Bad,-70,Lose,415,Bias-Inconsistent,Gamble
3,38,315,Full,Standard,Last,41,1,0,1068,,Bad,-60,Lose,365,Bias-Inconsistent,Sure
3,38,315,Full,Standard,Last,42,1,1,546,,Good,-30,Lose,335,Bias-Consistent,Gamble
3,38,315,Full,Standard,Last,43,0,0,639,,Good,-55,Gain,385,Bias-Inconsistent,Sure
3,38,315,Full,Standard,Last,44,1,1,1301,,Good,40,Gain,425,Bias-Inconsistent,Gamble
3,38,315,Full,Standard,Last,45,0,0,933,,Good,115,Gain,475,Bias-Inconsistent,Sure
3,38,315,Full,Standard,Last,46,1,0,1422,,Bad,100,Lose,425,Bias-Inconsistent,Sure
3,38,315,Full,Standard,Last,47,1,1,841,,Good,195,Gain,620,Bias-Inconsistent,Gamble
3,38,315,Full,Standard,Last,48,0,0,1003,,Good,120,Gain,670,Bias-Inconsistent,Sure
3,38,315,Full,Standard,Last,49,1,1,639,,Good,-50,Lose,620,Bias-Consistent,Gamble
3,38,315,Full,Standard,Last,50,1,1,1424,,Good,180,Lose,800,Bias-Consistent,Gamble
3,38,315,Full,Standard,Last,51,1,0,1141,,Bad,-180,Lose,750,Bias-Inconsistent,Sure
3,38,315,Full,Standard,Last,52,1,0,589,,Bad,75,Gain,800,Bias-Consistent,Sure
3,38,315,Full,Standard,Last,53,0,1,843,,Bad,-130,Gain,670,Bias-Consistent,Gamble
3,38,315,Full,Standard,Last,54,1,0,633,,Bad,-170,Gain,720,Bias-Consistent,Sure
3,38,315,Full,Standard,Last,55,1,1,951,,Good,-55,Lose,665,Bias-Consistent,Gamble
3,38,315,Full,Standard,Last,56,1,0,1197,,Bad,-130,Lose,615,Bias-Inconsistent,Sure
3,38,315,Full,Standard,Last,57,1,1,979,,Good,160,Gain,775,Bias-Inconsistent,Gamble
3,38,315,Full,Standard,Last,58,1,1,1146,,Good,120,Lose,895,Bias-Consistent,Gamble
3,38,315,Full,Standard,Last,59,1,0,814,,Bad,-170,Lose,845,Bias-Inconsistent,Sure
3,38,315,Full,Standard,Last,60,1,0,1135,,Bad,-70,Gain,895,Bias-Consistent,Sure
3,38,315,Full,Standard,Last,61,1,0,777,,Bad,-60,Gain,945,Bias-Consistent,Sure
3,38,315,Full,Standard,Last,62,1,1,825,,Good,-30,Gain,915,Bias-Inconsistent,Gamble
3,38,315,Full,Standard,Last,63,0,1,814,,Bad,75,Lose,990,Bias-Inconsistent,Gamble
3,38,315,Full,Standard,Last,64,1,0,722,,Bad,100,Gain,1040,Bias-Consistent,Sure
3,38,315,Full,Standard,Last,65,1,1,636,,Good,115,Lose,1155,Bias-Consistent,Gamble
3,38,315,Full,Standard,Last,66,1,0,850,,Bad,-180,Gain,1205,Bias-Consistent,Sure
3,38,315,Full,Standard,Last,67,1,1,650,,Good,195,Lose,1400,Bias-Consistent,Gamble
3,38,315,Full,Standard,Last,68,0,0,656,,Good,-50,Gain,1450,Bias-Inconsistent,Sure
3,38,315,Full,Standard,Last,69,0,1,1026,,Bad,-110,Lose,1340,Bias-Inconsistent,Gamble
3,38,315,Full,Standard,Last,70,1,1,1092,,Good,40,Lose,1380,Bias-Consistent,Gamble
3,38,315,Full,Standard,Last,71,1,0,855,,Bad,-125,Lose,1330,Bias-Inconsistent,Sure
3,38,315,Full,Standard,Last,72,1,1,782,,Good,180,Gain,1510,Bias-Inconsistent,Gamble
3,39,316,Full,Tight,First,1,1,0,724,,Bad,-125,Gain,250,Bias-Consistent,Sure
3,39,316,Full,Tight,First,2,1,0,554,,Bad,-135,Gain,300,Bias-Consistent,Sure
3,39,316,Full,Tight,First,3,0,0,471,,Good,175,Gain,350,Bias-Inconsistent,Sure
3,39,316,Full,Tight,First,4,0,1,297,,Bad,65,Lose,415,Bias-Inconsistent,Gamble
3,39,316,Full,Tight,First,5,1,1,947,,Good,-15,Gain,400,Bias-Inconsistent,Gamble
3,39,316,Full,Tight,First,6,1,0,355,,Bad,-110,Gain,450,Bias-Consistent,Sure
3,39,316,Full,Tight,First,7,1,1,860,,Good,95,Lose,545,Bias-Consistent,Gamble
3,39,316,Full,Tight,First,8,0,0,716,,Good,115,Gain,595,Bias-Inconsistent,Sure
3,39,316,Full,Tight,First,9,1,1,665,,Good,-30,Lose,565,Bias-Consistent,Gamble
3,39,316,Full,Tight,First,10,0,0,1015,,Good,145,Gain,615,Bias-Inconsistent,Sure
3,39,316,Full,Tight,First,11,0,1,747,,Bad,25,Gain,640,Bias-Consistent,Gamble
3,39,316,Full,Tight,First,12,0,0,1242,,Good,-5,Lose,590,Bias-Consistent,Sure
3,39,316,Full,Tight,First,13,0,1,867,,Bad,-80,Lose,510,Bias-Inconsistent,Gamble
3,39,316,Full,Tight,First,14,1,0,740,,Bad,-100,Gain,560,Bias-Consistent,Sure
3,39,316,Full,Tight,First,15,1,1,795,,Good,130,Lose,690,Bias-Consistent,Gamble
3,39,316,Full,Tight,First,16,1,0,1240,,Bad,-60,Lose,640,Bias-Inconsistent,Sure
3,39,316,Full,Tight,First,17,0,0,690,,Good,60,Gain,690,Bias-Inconsistent,Sure
3,39,316,Full,Tight,First,18,0,1,551,,Bad,-160,Lose,530,Bias-Inconsistent,Gamble
3,39,316,Full,Tight,First,19,1,0,553,,Bad,65,Gain,580,Bias-Consistent,Sure
3,39,316,Full,Tight,First,20,1,1,905,,Good,60,Lose,640,Bias-Consistent,Gamble
3,39,316,Full,Tight,First,21,1,1,942,,Good,175,Lose,815,Bias-Consistent,Gamble
3,39,316,Full,Tight,First,22,0,0,551,,Good,130,Gain,865,Bias-Inconsistent,Sure
3,39,316,Full,Tight,First,23,0,0,173,,Good,95,Gain,915,Bias-Inconsistent,Sure
3,39,316,Full,Tight,First,24,1,0,104,,Bad,-80,Gain,965,Bias-Consistent,Sure
3,39,316,Full,Tight,First,25,0,1,801,,Bad,-135,Lose,830,Bias-Inconsistent,Gamble
3,39,316,Full,Tight,First,26,0,1,656,,Bad,-110,Lose,720,Bias-Inconsistent,Gamble
3,39,316,Full,Tight,First,27,0,1,806,,Bad,-125,Lose,595,Bias-Inconsistent,Gamble
3,39,316,Full,Tight,First,28,1,0,635,,Bad,-160,Gain,645,Bias-Consistent,Sure
3,39,316,Full,Tight,First,29,0,1,583,,Bad,-100,Lose,545,Bias-Inconsistent,Gamble
3,39,316,Full,Tight,First,30,1,1,1124,,Good,-30,Gain,515,Bias-Inconsistent,Gamble
3,39,316,Full,Tight,First,31,0,1,907,,Bad,25,Lose,540,Bias-Inconsistent,Gamble
3,39,316,Full,Tight,First,32,1,1,733,,Good,145,Lose,685,Bias-Consistent,Gamble
3,39,316,Full,Tight,First,33,1,1,906,,Good,115,Lose,800,Bias-Consistent,Gamble
3,39,316,Full,Tight,First,34,0,0,638,,Good,-5,Gain,850,Bias-Inconsistent,Sure
3,39,316,Full,Tight,First,35,1,1,705,,Good,-15,Lose,835,Bias-Consistent,Gamble
3,39,316,Full,Tight,First,36,1,0,714,,Bad,-60,Gain,885,Bias-Consistent,Sure
3,39,316,Full,Tight,First,37,1,0,592,,Bad,-125,Gain,935,Bias-Consistent,Sure
3,39,316,Full,Tight,First,38,1,1,939,,Good,60,Gain,995,Bias-Inconsistent,Gamble
3,39,316,Full,Tight,First,39,0,1,762,,Bad,-60,Lose,935,Bias-Inconsistent,Gamble
3,39,316,Full,Tight,First,40,1,1,959,,Good,115,Gain,1050,Bias-Inconsistent,Gamble
3,39,316,Full,Tight,First,41,1,1,610,,Good,130,Lose,1180,Bias-Consistent,Gamble
3,39,316,Full,Tight,First,42,1,0,971,,Bad,-135,Gain,1230,Bias-Consistent,Sure
3,39,316,Full,Tight,First,43,1,0,131,,Bad,-110,Gain,1280,Bias-Consistent,Sure
3,39,316,Full,Tight,First,44,0,1,533,,Bad,65,Lose,1345,Bias-Inconsistent,Gamble
3,39,316,Full,Tight,First,45,0,0,833,,Good,145,Gain,1395,Bias-Inconsistent,Sure
3,39,316,Full,Tight,First,46,1,1,525,,Good,95,Lose,1490,Bias-Consistent,Gamble
3,39,316,Full,Tight,First,47,0,0,1346,,Good,-15,Gain,1540,Bias-Inconsistent,Sure
3,39,316,Full,Tight,First,48,0,1,671,,Bad,-160,Lose,1380,Bias-Inconsistent,Gamble
3,39,316,Full,Tight,First,49,0,1,1433,,Bad,-100,Gain,1280,Bias-Consistent,Gamble
3,39,316,Full,Tight,First,50,0,0,115,,Good,-30,Lose,1230,Bias-Consistent,Sure
3,39,316,Full,Tight,First,51,0,1,1139,,Bad,25,Gain,1255,Bias-Consistent,Gamble
3,39,316,Full,Tight,First,52,1,1,835,,Good,-5,Lose,1250,Bias-Consistent,Gamble
3,39,316,Full,Tight,First,53,0,0,495,,Good,175,Gain,1300,Bias-Inconsistent,Sure
3,39,316,Full,Tight,First,54,1,0,128,,Bad,-80,Lose,1250,Bias-Inconsistent,Sure
3,39,316,Full,Tight,First,55,1,1,251,,Good,95,Gain,1345,Bias-Inconsistent,Gamble
3,39,316,Full,Tight,First,56,1,1,982,,Good,115,Lose,1460,Bias-Consistent,Gamble
3,39,316,Full,Tight,First,57,1,1,647,,Good,60,Lose,1520,Bias-Consistent,Gamble
3,39,316,Full,Tight,First,58,1,0,137,,Bad,-160,Gain,1570,Bias-Consistent,Sure
3,39,316,Full,Tight,First,59,1,1,637,,Good,145,Lose,1715,Bias-Consistent,Gamble
3,39,316,Full,Tight,First,60,0,0,141,,Good,130,Gain,1765,Bias-Inconsistent,Sure
3,39,316,Full,Tight,First,61,0,0,138,,Good,-15,Lose,1715,Bias-Consistent,Sure
3,39,316,Full,Tight,First,62,0,1,657,,Bad,-125,Lose,1590,Bias-Inconsistent,Gamble
3,39,316,Full,Tight,First,63,0,0,858,,Good,-30,Gain,1640,Bias-Inconsistent,Sure
3,39,316,Full,Tight,First,64,0,1,724,,Bad,-110,Lose,1530,Bias-Inconsistent,Gamble
3,39,316,Full,Tight,First,65,1,0,751,,Bad,-60,Gain,1580,Bias-Consistent,Sure
3,39,316,Full,Tight,First,66,1,0,993,,Bad,65,Gain,1630,Bias-Consistent,Sure
3,39,316,Full,Tight,First,67,1,1,949,,Good,-5,Gain,1625,Bias-Inconsistent,Gamble
3,39,316,Full,Tight,First,68,1,0,627,,Bad,-80,Gain,1675,Bias-Consistent,Sure
3,39,316,Full,Tight,First,69,0,1,764,,Bad,-100,Lose,1575,Bias-Inconsistent,Gamble
3,39,316,Full,Tight,First,70,1,1,919,,Good,175,Lose,1750,Bias-Consistent,Gamble
3,39,316,Full,Tight,First,71,1,0,117,,Bad,-135,Lose,1700,Bias-Inconsistent,Sure
3,39,316,Full,Tight,First,72,0,1,645,,Bad,25,Lose,1725,Bias-Inconsistent,Gamble
3,40,317,Full,Tight,Last,1,1,0,493,,Bad,-100,Gain,250,Bias-Consistent,Sure
3,40,317,Full,Tight,Last,2,0,0,612,,Good,115,Gain,300,Bias-Inconsistent,Sure
3,40,317,Full,Tight,Last,3,1,1,535,,Good,-5,Lose,295,Bias-Consistent,Gamble
3,40,317,Full,Tight,Last,4,0,1,534,,Bad,-80,Lose,215,Bias-Inconsistent,Gamble
3,40,317,Full,Tight,Last,5,1,0,641,,Bad,-125,Gain,265,Bias-Consistent,Sure
3,40,317,Full,Tight,Last,6,0,0,586,,Good,95,Lose,215,Bias-Consistent,Sure
3,40,317,Full,Tight,Last,7,1,0,842,,Bad,-135,Gain,265,Bias-Consistent,Sure
3,40,317,Full,Tight,Last,8,0,0,516,,Good,-15,Gain,315,Bias-Inconsistent,Sure
3,40,317,Full,Tight,Last,9,1,0,496,,Bad,25,Gain,365,Bias-Consistent,Sure
3,40,317,Full,Tight,Last,10,0,0,501,,Good,145,Gain,415,Bias-Inconsistent,Sure
3,40,317,Full,Tight,Last,11,0,1,752,,Bad,-160,Lose,255,Bias-Inconsistent,Gamble
3,40,317,Full,Tight,Last,12,0,0,485,,Good,175,Gain,305,Bias-Inconsistent,Sure
3,40,317,Full,Tight,Last,13,1,1,643,,Good,-30,Lose,275,Bias-Consistent,Gamble
3,40,317,Full,Tight,Last,14,1,0,426,,Bad,-110,Gain,325,Bias-Consistent,Sure
3,40,317,Full,Tight,Last,15,0,1,529,,Bad,65,Lose,390,Bias-Inconsistent,Gamble
3,40,317,Full,Tight,Last,16,0,1,738,,Bad,-60,Lose,330,Bias-Inconsistent,Gamble
3,40,317,Full,Tight,Last,17,1,1,779,,Good,130,Lose,460,Bias-Consistent,Gamble
3,40,317,Full,Tight,Last,18,0,0,548,,Good,60,Gain,510,Bias-Inconsistent,Sure
3,40,317,Full,Tight,Last,19,1,1,674,,Good,175,Lose,685,Bias-Consistent,Gamble
3,40,317,Full,Tight,Last,20,0,1,709,,Bad,-125,Lose,560,Bias-Inconsistent,Gamble
3,40,317,Full,Tight,Last,21,0,0,736,,Good,145,Lose,510,Bias-Consistent,Sure
3,40,317,Full,Tight,Last,22,0,1,841,,Bad,-100,Lose,410,Bias-Inconsistent,Gamble
3,40,317,Full,Tight,Last,23,0,0,433,,Good,95,Gain,460,Bias-Inconsistent,Sure
3,40,317,Full,Tight,Last,24,1,0,492,,Bad,65,Gain,510,Bias-Consistent,Sure
3,40,317,Full,Tight,Last,25,1,1,881,,Good,-15,Lose,495,Bias-Consistent,Gamble
3,40,317,Full,Tight,Last,26,1,0,809,,Bad,-160,Gain,545,Bias-Consistent,Sure
3,40,317,Full,Tight,Last,27,0,1,867,,Bad,25,Lose,570,Bias-Inconsistent,Gamble
3,40,317,Full,Tight,Last,28,0,0,497,,Good,-5,Gain,620,Bias-Inconsistent,Sure
3,40,317,Full,Tight,Last,29,1,1,1013,,Good,60,Lose,680,Bias-Consistent,Gamble
3,40,317,Full,Tight,Last,30,1,0,614,,Bad,-80,Gain,730,Bias-Consistent,Sure
3,40,317,Full,Tight,Last,31,1,0,530,,Bad,-60,Gain,780,Bias-Consistent,Sure
3,40,317,Full,Tight,Last,32,0,1,725,,Bad,-135,Lose,645,Bias-Inconsistent,Gamble
3,40,317,Full,Tight,Last,33,0,0,652,,Good,-30,Gain,695,Bias-Inconsistent,Sure
3,40,317,Full,Tight,Last,34,0,0,1066,,Good,115,Lose,645,Bias-Consistent,Sure
3,40,317,Full,Tight,Last,35,0,1,748,,Bad,-110,Lose,535,Bias-Inconsistent,Gamble
3,40,317,Full,Tight,Last,36,0,0,430,,Good,130,Gain,585,Bias-Inconsistent,Sure
3,40,317,Full,Tight,Last,37,1,1,1589,,Good,95,Lose,680,Bias-Consistent,Gamble
3,40,317,Full,Tight,Last,38,0,0,1518,,Good,60,Gain,730,Bias-Inconsistent,Sure
3,40,317,Full,Tight,Last,39,0,0,530,,Good,-15,Gain,780,Bias-Inconsistent,Sure
3,40,317,Full,Tight,Last,40,0,0,786,,Good,145,Gain,830,Bias-Inconsistent,Sure
3,40,317,Full,Tight,Last,41,0,0,755,,Good,175,Gain,880,Bias-Inconsistent,Sure
3,40,317,Full,Tight,Last,42,0,1,1292,,Bad,65,Lose,945,Bias-Inconsistent,Gamble
3,40,317,Full,Tight,Last,43,0,0,729,,Good,115,Gain,995,Bias-Inconsistent,Sure
3,40,317,Full,Tight,Last,44,1,1,1029,,Good,-5,Lose,990,Bias-Consistent,Gamble
3,40,317,Full,Tight,Last,45,1,1,986,,Good,-30,Lose,960,Bias-Consistent,Gamble
3,40,317,Full,Tight,Last,46,0,1,1370,,Bad,-160,Lose,800,Bias-Inconsistent,Gamble
3,40,317,Full,Tight,Last,47,1,0,1272,,Bad,-135,Gain,850,Bias-Consistent,Sure
3,40,317,Full,Tight,Last,48,1,0,796,,Bad,25,Gain,900,Bias-Consistent,Sure
3,40,317,Full,Tight,Last,49,0,1,724,,Bad,-60,Lose,840,Bias-Inconsistent,Gamble
3,40,317,Full,Tight,Last,50,1,0,670,,Bad,-110,Gain,890,Bias-Consistent,Sure
3,40,317,Full,Tight,Last,51,1,0,1199,,Bad,-80,Lose,840,Bias-Inconsistent,Sure
3,40,317,Full,Tight,Last,52,1,0,1191,,Bad,-125,Gain,890,Bias-Consistent,Sure
3,40,317,Full,Tight,Last,53,1,0,1022,,Bad,-100,Gain,940,Bias-Consistent,Sure
3,40,317,Full,Tight,Last,54,1,1,724,,Good,130,Lose,1070,Bias-Consistent,Gamble
3,40,317,Full,Tight,Last,55,1,1,1062,,Good,60,Lose,1130,Bias-Consistent,Gamble
3,40,317,Full,Tight,Last,56,1,1,1464,,Good,-5,Gain,1125,Bias-Inconsistent,Gamble
3,40,317,Full,Tight,Last,57,1,1,1365,,Good,-15,Lose,1110,Bias-Consistent,Gamble
3,40,317,Full,Tight,Last,58,0,0,1379,,Good,-30,Gain,1160,Bias-Inconsistent,Sure
3,40,317,Full,Tight,Last,59,1,1,1120,,Good,145,Lose,1305,Bias-Consistent,Gamble
3,40,317,Full,Tight,Last,60,1,1,1537,,Good,95,Gain,1400,Bias-Inconsistent,Gamble
3,40,317,Full,Tight,Last,61,1,0,816,,Bad,-160,Gain,1450,Bias-Consistent,Sure
3,40,317,Full,Tight,Last,62,1,0,879,,Bad,-60,Gain,1500,Bias-Consistent,Sure
3,40,317,Full,Tight,Last,63,1,0,703,,Bad,-80,Gain,1550,Bias-Consistent,Sure
3,40,317,Full,Tight,Last,64,,,0,,Bad,25,Lose,1450,Bias-Inconsistent,
3,40,317,Full,Tight,Last,65,1,1,1057,,Good,175,Lose,1625,Bias-Consistent,Gamble
3,40,317,Full,Tight,Last,66,1,0,1107,,Bad,-125,Lose,1575,Bias-Inconsistent,Sure
3,40,317,Full,Tight,Last,67,1,0,990,,Bad,-100,Lose,1525,Bias-Inconsistent,Sure
3,40,317,Full,Tight,Last,68,1,0,734,,Bad,-110,Lose,1475,Bias-Inconsistent,Sure
3,40,317,Full,Tight,Last,69,1,1,816,,Good,115,Lose,1590,Bias-Consistent,Gamble
3,40,317,Full,Tight,Last,70,1,0,1134,,Bad,65,Gain,1640,Bias-Consistent,Sure
3,40,317,Full,Tight,Last,71,1,0,1591,,Bad,-135,Lose,1590,Bias-Inconsistent,Sure
3,40,317,Full,Tight,Last,72,1,1,1185,,Good,130,Gain,1720,Bias-Inconsistent,Gamble
3,49,318,Full,Standard,First,1,1,1,796,,Good,40,Gain,240,Bias-Inconsistent,Gamble
3,49,318,Full,Standard,First,2,1,1,482,,Good,195,Gain,435,Bias-Inconsistent,Gamble
3,49,318,Full,Standard,First,3,1,0,506,,Bad,100,Lose,385,Bias-Inconsistent,Sure
3,49,318,Full,Standard,First,4,1,0,806,,Bad,-70,Lose,335,Bias-Inconsistent,Sure
3,49,318,Full,Standard,First,5,0,0,539,,Good,115,Gain,385,Bias-Inconsistent,Sure
3,49,318,Full,Standard,First,6,0,1,1067,,Bad,-180,Lose,205,Bias-Inconsistent,Gamble
3,49,318,Full,Standard,First,7,1,0,917,,Bad,-125,Gain,255,Bias-Consistent,Sure
3,49,318,Full,Standard,First,8,0,0,526,,Good,120,Gain,305,Bias-Inconsistent,Sure
3,49,318,Full,Standard,First,9,0,1,1027,,Bad,-110,Gain,195,Bias-Consistent,Gamble
3,49,318,Full,Standard,First,10,0,0,549,,Good,180,Lose,145,Bias-Consistent,Sure
3,49,318,Full,Standard,First,11,0,0,954,,Good,-55,Gain,195,Bias-Inconsistent,Sure
3,49,318,Full,Standard,First,12,1,0,478,,Bad,-60,Lose,145,Bias-Inconsistent,Sure
3,49,318,Full,Standard,First,13,0,0,479,,Good,-30,Lose,95,Bias-Consistent,Sure
3,49,318,Full,Standard,First,14,0,1,1269,,Bad,-130,Gain,-35,Bias-Consistent,Gamble
3,49,318,Full,Standard,First,15,0,1,936,,Bad,-170,Gain,-205,Bias-Consistent,Gamble
3,49,318,Full,Standard,First,16,1,1,1243,,Good,-50,Lose,-255,Bias-Consistent,Gamble
3,49,318,Full,Standard,First,17,1,1,959,,Good,160,Lose,-95,Bias-Consistent,Gamble
3,49,318,Full,Standard,First,18,1,0,758,,Bad,75,Gain,-45,Bias-Consistent,Sure
3,49,318,Full,Standard,First,19,0,0,620,,Good,160,Gain,5,Bias-Inconsistent,Sure
3,49,318,Full,Standard,First,20,1,1,1372,,Good,195,Lose,200,Bias-Consistent,Gamble
3,49,318,Full,Standard,First,21,1,0,1021,,Bad,-180,Gain,250,Bias-Consistent,Sure
3,49,318,Full,Standard,First,22,1,1,811,,Good,40,Lose,290,Bias-Consistent,Gamble
3,49,318,Full,Standard,First,23,0,1,782,,Bad,-110,Lose,180,Bias-Inconsistent,Gamble
3,49,318,Full,Standard,First,24,0,0,621,,Good,-50,Gain,230,Bias-Inconsistent,Sure
3,49,318,Full,Standard,First,25,1,0,728,,Bad,-70,Gain,280,Bias-Consistent,Sure
3,49,318,Full,Standard,First,26,0,0,646,,Good,-30,Gain,330,Bias-Inconsistent,Sure
3,49,318,Full,Standard,First,27,0,1,1403,,Bad,-130,Lose,200,Bias-Inconsistent,Gamble
3,49,318,Full,Standard,First,28,0,0,601,,Good,180,Gain,250,Bias-Inconsistent,Sure
3,49,318,Full,Standard,First,29,0,0,1415,,Good,120,Lose,200,Bias-Consistent,Sure
3,49,318,Full,Standard,First,30,1,1,956,,Good,115,Lose,315,Bias-Consistent,Gamble
3,49,318,Full,Standard,First,31,0,1,1074,,Bad,75,Lose,390,Bias-Inconsistent,Gamble
3,49,318,Full,Standard,First,32,0,1,939,,Bad,-125,Lose,265,Bias-Inconsistent,Gamble
3,49,318,Full,Standard,First,33,1,0,950,,Bad,-60,Gain,315,Bias-Consistent,Sure
3,49,318,Full,Standard,First,34,1,0,794,,Bad,100,Gain,365,Bias-Consistent,Sure
3,49,318,Full,Standard,First,35,0,0,569,,Good,-55,Lose,315,Bias-Consistent,Sure
3,49,318,Full,Standard,First,36,1,0,553,,Bad,-170,Lose,265,Bias-Inconsistent,Sure
3,49,318,Full,Standard,First,37,0,1,969,,Bad,-180,Lose,85,Bias-Inconsistent,Gamble
3,49,318,Full,Standard,First,38,1,1,717,,Good,180,Lose,265,Bias-Consistent,Gamble
3,49,318,Full,Standard,First,39,1,0,1107,,Bad,-170,Gain,315,Bias-Consistent,Sure
3,49,318,Full,Standard,First,40,,,0,,Bad,-60,Lose,215,Bias-Inconsistent,
3,49,318,Full,Standard,First,41,1,1,893,,Good,40,Gain,255,Bias-Inconsistent,Gamble
3,49,318,Full,Standard,First,42,1,1,1103,,Good,-30,Lose,225,Bias-Consistent,Gamble
3,49,318,Full,Standard,First,43,1,0,1221,,Bad,-110,Gain,275,Bias-Consistent,Sure
3,49,318,Full,Standard,First,44,1,1,1027,,Good,195,Gain,470,Bias-Inconsistent,Gamble
3,49,318,Full,Standard,First,45,1,0,743,,Bad,-130,Gain,520,Bias-Consistent,Sure
3,49,318,Full,Standard,First,46,1,1,1122,,Good,160,Lose,680,Bias-Consistent,Gamble
3,49,318,Full,Standard,First,47,1,1,1055,,Good,115,Gain,795,Bias-Inconsistent,Gamble
3,49,318,Full,Standard,First,48,1,0,560,,Bad,75,Gain,845,Bias-Consistent,Sure
3,49,318,Full,Standard,First,49,1,0,1366,,Bad,100,Lose,795,Bias-Inconsistent,Sure
3,49,318,Full,Standard,First,50,1,1,810,,Good,-55,Gain,740,Bias-Inconsistent,Gamble
3,49,318,Full,Standard,First,51,0,0,704,,Good,120,Gain,790,Bias-Inconsistent,Sure
3,49,318,Full,Standard,First,52,1,0,880,,Bad,-125,Gain,840,Bias-Consistent,Sure
3,49,318,Full,Standard,First,53,1,1,685,,Good,-50,Lose,790,Bias-Consistent,Gamble
3,49,318,Full,Standard,First,54,0,1,661,,Bad,-70,Lose,720,Bias-Inconsistent,Gamble
3,49,318,Full,Standard,First,55,0,0,688,,Good,160,Gain,770,Bias-Inconsistent,Sure
3,49,318,Full,Standard,First,56,1,1,580,,Good,-50,Gain,720,Bias-Inconsistent,Gamble
3,49,318,Full,Standard,First,57,0,0,495,,Good,-55,Lose,670,Bias-Consistent,Sure
3,49,318,Full,Standard,First,58,1,1,488,,Good,-30,Gain,640,Bias-Inconsistent,Gamble
3,49,318,Full,Standard,First,59,0,0,850,,Good,115,Lose,590,Bias-Consistent,Sure
3,49,318,Full,Standard,First,60,1,0,688,,Bad,-170,Lose,540,Bias-Inconsistent,Sure
3,49,318,Full,Standard,First,61,0,1,468,,Bad,-125,Lose,415,Bias-Inconsistent,Gamble
3,49,318,Full,Standard,First,62,1,0,421,,Bad,-60,Gain,465,Bias-Consistent,Sure
3,49,318,Full,Standard,First,63,1,0,987,,Bad,-110,Lose,415,Bias-Inconsistent,Sure
3,49,318,Full,Standard,First,64,1,0,605,,Bad,75,Lose,365,Bias-Inconsistent,Sure
3,49,318,Full,Standard,First,65,1,0,562,,Bad,-130,Lose,315,Bias-Inconsistent,Sure
3,49,318,Full,Standard,First,66,1,1,609,,Good,40,Lose,355,Bias-Consistent,Gamble
3,49,318,Full,Standard,First,67,1,1,623,,Good,180,Gain,535,Bias-Inconsistent,Gamble
3,49,318,Full,Standard,First,68,1,0,603,,Bad,-70,Gain,585,Bias-Consistent,Sure
3,49,318,Full,Standard,First,69,1,1,642,,Good,120,Lose,705,Bias-Consistent,Gamble
3,49,318,Full,Standard,First,70,1,1,972,,Good,195,Lose,900,Bias-Consistent,Gamble
3,49,318,Full,Standard,First,71,1,0,734,,Bad,-180,Gain,950,Bias-Consistent,Sure
3,49,318,Full,Standard,First,72,1,0,649,,Bad,100,Gain,1000,Bias-Consistent,Sure
3,50,319,Full,Standard,Last,1,1,1,905,,Good,-50,Lose,150,Bias-Consistent,Gamble
3,50,319,Full,Standard,Last,2,0,0,1153,,Good,-55,Gain,200,Bias-Inconsistent,Sure
3,50,319,Full,Standard,Last,3,0,1,1126,,Bad,-170,Gain,30,Bias-Consistent,Gamble
3,50,319,Full,Standard,Last,4,1,1,939,,Good,-30,Lose,0,Bias-Consistent,Gamble
3,50,319,Full,Standard,Last,5,1,0,1166,,Bad,75,Gain,50,Bias-Consistent,Sure
3,50,319,Full,Standard,Last,6,1,0,932,,Bad,-110,Gain,100,Bias-Consistent,Sure
3,50,319,Full,Standard,Last,7,0,1,1237,,Bad,-125,Gain,-25,Bias-Consistent,Gamble
3,50,319,Full,Standard,Last,8,0,0,904,,Good,195,Gain,25,Bias-Inconsistent,Sure
3,50,319,Full,Standard,Last,9,0,0,1320,,Good,120,Gain,75,Bias-Inconsistent,Sure
3,50,319,Full,Standard,Last,10,0,1,1011,,Bad,100,Lose,175,Bias-Inconsistent,Gamble
3,50,319,Full,Standard,Last,11,1,0,1633,,Bad,-60,Lose,125,Bias-Inconsistent,Sure
3,50,319,Full,Standard,Last,12,1,1,1177,,Good,115,Gain,240,Bias-Inconsistent,Gamble
3,50,319,Full,Standard,Last,13,0,1,1167,,Bad,-180,Lose,60,Bias-Inconsistent,Gamble
3,50,319,Full,Standard,Last,14,1,0,1165,,Bad,-130,Gain,110,Bias-Consistent,Sure
3,50,319,Full,Standard,Last,15,1,1,1429,,Good,40,Gain,150,Bias-Inconsistent,Gamble
3,50,319,Full,Standard,Last,16,1,1,824,,Good,180,Lose,330,Bias-Consistent,Gamble
3,50,319,Full,Standard,Last,17,1,1,992,,Good,160,Lose,490,Bias-Consistent,Gamble
3,50,319,Full,Standard,Last,18,0,1,1074,,Bad,-70,Lose,420,Bias-Inconsistent,Gamble
3,50,319,Full,Standard,Last,19,0,0,1362,,Good,120,Lose,370,Bias-Consistent,Sure
3,50,319,Full,Standard,Last,20,0,1,772,,Bad,-125,Lose,245,Bias-Inconsistent,Gamble
3,50,319,Full,Standard,Last,21,1,1,1210,,Good,160,Gain,405,Bias-Inconsistent,Gamble
3,50,319,Full,Standard,Last,22,0,1,1140,,Bad,75,Lose,480,Bias-Inconsistent,Gamble
3,50,319,Full,Standard,Last,23,1,1,1259,,Good,-30,Gain,450,Bias-Inconsistent,Gamble
3,50,319,Full,Standard,Last,24,1,1,1441,,Good,-55,Lose,395,Bias-Consistent,Gamble
3,50,319,Full,Standard,Last,25,0,1,1529,,Bad,-170,Lose,225,Bias-Inconsistent,Gamble
3,50,319,Full,Standard,Last,26,1,1,1606,,Good,195,Lose,420,Bias-Consistent,Gamble
3,50,319,Full,Standard,Last,27,1,1,1635,,Good,115,Lose,535,Bias-Consistent,Gamble
3,50,319,Full,Standard,Last,28,1,1,870,,Good,40,Lose,575,Bias-Consistent,Gamble
3,50,319,Full,Standard,Last,29,1,0,1023,,Bad,-70,Gain,625,Bias-Consistent,Sure
3,50,319,Full,Standard,Last,30,1,0,1091,,Bad,-60,Gain,675,Bias-Consistent,Sure
3,50,319,Full,Standard,Last,31,1,0,1126,,Bad,-180,Gain,725,Bias-Consistent,Sure
3,50,319,Full,Standard,Last,32,1,1,1193,,Good,-50,Gain,675,Bias-Inconsistent,Gamble
3,50,319,Full,Standard,Last,33,0,0,1393,,Good,180,Gain,725,Bias-Inconsistent,Sure
3,50,319,Full,Standard,Last,34,0,1,1649,,Bad,-130,Lose,595,Bias-Inconsistent,Gamble
3,50,319,Full,Standard,Last,35,1,0,1377,,Bad,-110,Lose,545,Bias-Inconsistent,Sure
3,50,319,Full,Standard,Last,36,1,0,1290,,Bad,100,Gain,595,Bias-Consistent,Sure
3,50,319,Full,Standard,Last,37,,,0,,Bad,75,Gain,495,Bias-Consistent,
3,50,319,Full,Standard,Last,38,0,0,924,,Good,40,Gain,545,Bias-Inconsistent,Sure
3,50,319,Full,Standard,Last,39,0,1,1085,,Bad,100,Lose,645,Bias-Inconsistent,Gamble
3,50,319,Full,Standard,Last,40,1,1,1260,,Good,180,Lose,825,Bias-Consistent,Gamble
3,50,319,Full,Standard,Last,41,0,1,1110,,Bad,-130,Gain,695,Bias-Consistent,Gamble
3,50,319,Full,Standard,Last,42,0,0,1124,,Good,195,Gain,745,Bias-Inconsistent,Sure
3,50,319,Full,Standard,Last,43,1,0,1452,,Bad,-125,Gain,795,Bias-Consistent,Sure
3,50,319,Full,Standard,Last,44,1,1,929,,Good,-50,Lose,745,Bias-Consistent,Gamble
3,50,319,Full,Standard,Last,45,1,1,1162,,Good,-55,Gain,690,Bias-Inconsistent,Gamble
3,50,319,Full,Standard,Last,46,1,0,1639,,Bad,-180,Lose,640,Bias-Inconsistent,Sure
3,50,319,Full,Standard,Last,47,1,1,1058,,Good,115,Gain,755,Bias-Inconsistent,Gamble
3,50,319,Full,Standard,Last,48,1,0,1054,,Bad,-170,Gain,805,Bias-Consistent,Sure
3,50,319,Full,Standard,Last,49,1,1,912,,Good,160,Lose,965,Bias-Consistent,Gamble
3,50,319,Full,Standard,Last,50,1,1,1234,,Good,-30,Lose,935,Bias-Consistent,Gamble
3,50,319,Full,Standard,Last,51,1,0,901,,Bad,-110,Gain,985,Bias-Consistent,Sure
3,50,319,Full,Standard,Last,52,1,1,1236,,Good,120,Gain,1105,Bias-Inconsistent,Gamble
3,50,319,Full,Standard,Last,53,1,0,1694,,Bad,-70,Lose,1055,Bias-Inconsistent,Sure
3,50,319,Full,Standard,Last,54,1,0,1140,,Bad,-60,Lose,1005,Bias-Inconsistent,Sure
3,50,319,Full,Standard,Last,55,1,1,936,,Good,40,Lose,1045,Bias-Consistent,Gamble
3,50,319,Full,Standard,Last,56,1,1,804,,Good,195,Lose,1240,Bias-Consistent,Gamble
3,50,319,Full,Standard,Last,57,1,1,961,,Good,160,Gain,1400,Bias-Inconsistent,Gamble
3,50,319,Full,Standard,Last,58,1,1,865,,Good,180,Gain,1580,Bias-Inconsistent,Gamble
3,50,319,Full,Standard,Last,59,1,0,963,,Bad,-70,Gain,1630,Bias-Consistent,Sure
3,50,319,Full,Standard,Last,60,1,0,1098,,Bad,-170,Lose,1580,Bias-Inconsistent,Sure
3,50,319,Full,Standard,Last,61,1,1,960,,Good,-30,Gain,1550,Bias-Inconsistent,Gamble
3,50,319,Full,Standard,Last,62,1,1,1065,,Good,115,Lose,1665,Bias-Consistent,Gamble
3,50,319,Full,Standard,Last,63,1,0,986,,Bad,-180,Gain,1715,Bias-Consistent,Sure
3,50,319,Full,Standard,Last,64,1,0,1329,,Bad,75,Lose,1665,Bias-Inconsistent,Sure
3,50,319,Full,Standard,Last,65,1,1,1070,,Good,-50,Gain,1615,Bias-Inconsistent,Gamble
3,50,319,Full,Standard,Last,66,1,0,1306,,Bad,100,Gain,1665,Bias-Consistent,Sure
3,50,319,Full,Standard,Last,67,1,0,1115,,Bad,-130,Lose,1615,Bias-Inconsistent,Sure
3,50,319,Full,Standard,Last,68,1,0,884,,Bad,-110,Lose,1565,Bias-Inconsistent,Sure
3,50,319,Full,Standard,Last,69,1,0,808,,Bad,-125,Lose,1515,Bias-Inconsistent,Sure
3,50,319,Full,Standard,Last,70,1,1,1085,,Good,120,Lose,1635,Bias-Consistent,Gamble
3,50,319,Full,Standard,Last,71,1,0,1239,,Bad,-60,Gain,1685,Bias-Consistent,Sure
3,50,319,Full,Standard,Last,72,1,1,1051,,Good,-55,Lose,1630,Bias-Consistent,Gamble
3,51,320,Full,Tight,First,1,1,1,963,,Good,175,Gain,375,Bias-Inconsistent,Gamble
3,51,320,Full,Tight,First,2,0,1,877,,Bad,65,Lose,440,Bias-Inconsistent,Gamble
3,51,320,Full,Tight,First,3,0,1,841,,Bad,-135,Gain,305,Bias-Consistent,Gamble
3,51,320,Full,Tight,First,4,,,0,,Good,-5,Lose,205,Bias-Consistent,
3,51,320,Full,Tight,First,5,0,1,642,,Bad,-125,Gain,80,Bias-Consistent,Gamble
3,51,320,Full,Tight,First,6,0,1,727,,Bad,-100,Gain,-20,Bias-Consistent,Gamble
3,51,320,Full,Tight,First,7,1,0,934,,Bad,-110,Gain,30,Bias-Consistent,Sure
3,51,320,Full,Tight,First,8,0,0,988,,Good,-15,Gain,80,Bias-Inconsistent,Sure
3,51,320,Full,Tight,First,9,1,1,621,,Good,-30,Lose,50,Bias-Consistent,Gamble
3,51,320,Full,Tight,First,10,0,1,666,,Bad,-80,Lose,-30,Bias-Inconsistent,Gamble
3,51,320,Full,Tight,First,11,1,0,1795,,Bad,25,Gain,20,Bias-Consistent,Sure
3,51,320,Full,Tight,First,12,0,0,1373,,Good,60,Gain,70,Bias-Inconsistent,Sure
3,51,320,Full,Tight,First,13,1,1,871,,Good,95,Lose,165,Bias-Consistent,Gamble
3,51,320,Full,Tight,First,14,0,1,784,,Bad,-160,Lose,5,Bias-Inconsistent,Gamble
3,51,320,Full,Tight,First,15,0,1,864,,Bad,-60,Lose,-55,Bias-Inconsistent,Gamble
3,51,320,Full,Tight,First,16,0,0,1023,,Good,130,Lose,-105,Bias-Consistent,Sure
3,51,320,Full,Tight,First,17,1,1,1291,,Good,115,Gain,10,Bias-Inconsistent,Gamble
3,51,320,Full,Tight,First,18,0,0,730,,Good,145,Gain,60,Bias-Inconsistent,Sure
3,51,320,Full,Tight,First,19,1,1,849,,Good,145,Lose,205,Bias-Consistent,Gamble
3,51,320,Full,Tight,First,20,1,0,774,,Bad,-80,Gain,255,Bias-Consistent,Sure
3,51,320,Full,Tight,First,21,1,0,1087,,Bad,25,Lose,205,Bias-Inconsistent,Sure
3,51,320,Full,Tight,First,22,0,1,1119,,Bad,-135,Lose,70,Bias-Inconsistent,Gamble
3,51,320,Full,Tight,First,23,0,0,788,,Good,95,Gain,120,Bias-Inconsistent,Sure
3,51,320,Full,Tight,First,24,1,0,1335,,Bad,-125,Lose,70,Bias-Inconsistent,Sure
3,51,320,Full,Tight,First,25,0,0,1690,,Good,-5,Gain,120,Bias-Inconsistent,Sure
3,51,320,Full,Tight,First,26,1,1,855,,Good,130,Gain,250,Bias-Inconsistent,Gamble
3,51,320,Full,Tight,First,27,0,1,1705,,Bad,-60,Gain,190,Bias-Consistent,Gamble
3,51,320,Full,Tight,First,28,0,0,1078,,Good,115,Lose,140,Bias-Consistent,Sure
3,51,320,Full,Tight,First,29,,,0,,Bad,-110,Lose,40,Bias-Inconsistent,
3,51,320,Full,Tight,First,30,1,1,669,,Good,60,Lose,100,Bias-Consistent,Gamble
3,51,320,Full,Tight,First,31,1,1,1374,,Good,-15,Lose,85,Bias-Consistent,Gamble
3,51,320,Full,Tight,First,32,1,1,1413,,Good,-30,Gain,55,Bias-Inconsistent,Gamble
3,51,320,Full,Tight,First,33,1,0,1028,,Bad,65,Gain,105,Bias-Consistent,Sure
3,51,320,Full,Tight,First,34,1,0,1773,,Bad,-160,Gain,155,Bias-Consistent,Sure
3,51,320,Full,Tight,First,35,0,1,899,,Bad,-100,Lose,55,Bias-Inconsistent,Gamble
3,51,320,Full,Tight,First,36,0,0,813,,Good,175,Lose,5,Bias-Consistent,Sure
3,51,320,Full,Tight,First,37,0,0,933,,Good,115,Gain,55,Bias-Inconsistent,Sure
3,51,320,Full,Tight,First,38,0,1,916,,Bad,-110,Gain,-55,Bias-Consistent,Gamble
3,51,320,Full,Tight,First,39,1,0,1062,,Bad,-135,Gain,-5,Bias-Consistent,Sure
3,51,320,Full,Tight,First,40,1,1,1059,,Good,130,Lose,125,Bias-Consistent,Gamble
3,51,320,Full,Tight,First,41,1,1,1275,,Good,95,Lose,220,Bias-Consistent,Gamble
3,51,320,Full,Tight,First,42,1,0,1589,,Bad,-60,Lose,170,Bias-Inconsistent,Sure
3,51,320,Full,Tight,First,43,1,1,1562,,Good,-30,Lose,140,Bias-Consistent,Gamble
3,51,320,Full,Tight,First,44,,,0,,Bad,65,Lose,40,Bias-Inconsistent,
3,51,320,Full,Tight,First,45,1,1,763,,Good,175,Gain,215,Bias-Inconsistent,Gamble
3,51,320,Full,Tight,First,46,1,1,698,,Good,60,Gain,275,Bias-Inconsistent,Gamble
3,51,320,Full,Tight,First,47,1,0,1195,,Bad,-80,Lose,225,Bias-Inconsistent,Sure
3,51,320,Full,Tight,First,48,1,1,716,,Good,-15,Gain,210,Bias-Inconsistent,Gamble
3,51,320,Full,Tight,First,49,1,0,617,,Bad,25,Gain,260,Bias-Consistent,Sure
3,51,320,Full,Tight,First,50,1,0,1145,,Bad,-125,Gain,310,Bias-Consistent,Sure
3,51,320,Full,Tight,First,51,1,0,1196,,Bad,-160,Lose,260,Bias-Inconsistent,Sure
3,51,320,Full,Tight,First,52,1,1,958,,Good,-5,Lose,255,Bias-Consistent,Gamble
3,51,320,Full,Tight,First,53,1,1,1796,,Good,145,Gain,400,Bias-Inconsistent,Gamble
3,51,320,Full,Tight,First,54,1,0,1221,,Bad,-100,Gain,450,Bias-Consistent,Sure
3,51,320,Full,Tight,First,55,1,1,1040,,Good,-30,Gain,420,Bias-Inconsistent,Gamble
3,51,320,Full,Tight,First,56,0,1,901,,Bad,25,Lose,445,Bias-Inconsistent,Gamble
3,51,320,Full,Tight,First,57,1,1,1570,,Good,145,Lose,590,Bias-Consistent,Gamble
3,51,320,Full,Tight,First,58,1,1,842,,Good,130,Gain,720,Bias-Inconsistent,Gamble
3,51,320,Full,Tight,First,59,0,1,788,,Bad,-60,Gain,660,Bias-Consistent,Gamble
3,51,320,Full,Tight,First,60,1,0,985,,Bad,-125,Lose,610,Bias-Inconsistent,Sure
3,51,320,Full,Tight,First,61,0,1,1676,,Bad,-110,Lose,500,Bias-Inconsistent,Gamble
3,51,320,Full,Tight,First,62,1,1,1032,,Good,95,Gain,595,Bias-Inconsistent,Gamble
3,51,320,Full,Tight,First,63,1,0,1011,,Bad,65,Gain,645,Bias-Consistent,Sure
3,51,320,Full,Tight,First,64,1,0,682,,Bad,-135,Lose,595,Bias-Inconsistent,Sure
3,51,320,Full,Tight,First,65,1,1,1242,,Good,-15,Lose,580,Bias-Consistent,Gamble
3,51,320,Full,Tight,First,66,1,1,533,,Good,60,Lose,640,Bias-Consistent,Gamble
3,51,320,Full,Tight,First,67,1,0,1447,,Bad,-160,Gain,690,Bias-Consistent,Sure
3,51,320,Full,Tight,First,68,1,0,983,,Bad,-80,Gain,740,Bias-Consistent,Sure
3,51,320,Full,Tight,First,69,1,1,1143,,Good,175,Lose,915,Bias-Consistent,Gamble
3,51,320,Full,Tight,First,70,1,1,1311,,Good,115,Lose,1030,Bias-Consistent,Gamble
3,51,320,Full,Tight,First,71,,,0,,Bad,-100,Lose,930,Bias-Inconsistent,
3,51,320,Full,Tight,First,72,1,1,1286,,Good,-5,Gain,925,Bias-Inconsistent,Gamble
3,52,321,Full,Tight,Last,1,1,0,811,,Bad,-100,Gain,250,Bias-Consistent,Sure
3,52,321,Full,Tight,Last,2,1,1,704,,Good,95,Lose,345,Bias-Consistent,Gamble
3,52,321,Full,Tight,Last,3,1,0,488,,Bad,-125,Gain,395,Bias-Consistent,Sure
3,52,321,Full,Tight,Last,4,0,1,524,,Bad,65,Lose,460,Bias-Inconsistent,Gamble
3,52,321,Full,Tight,Last,5,0,0,596,,Good,145,Gain,510,Bias-Inconsistent,Sure
3,52,321,Full,Tight,Last,6,1,1,765,,Good,115,Gain,625,Bias-Inconsistent,Gamble
3,52,321,Full,Tight,Last,7,1,0,493,,Bad,25,Gain,675,Bias-Consistent,Sure
3,52,321,Full,Tight,Last,8,1,0,678,,Bad,-135,Gain,725,Bias-Consistent,Sure
3,52,321,Full,Tight,Last,9,1,1,754,,Good,-15,Gain,710,Bias-Inconsistent,Gamble
3,52,321,Full,Tight,Last,10,0,0,580,,Good,175,Gain,760,Bias-Inconsistent,Sure
3,52,321,Full,Tight,Last,11,0,1,805,,Bad,-80,Lose,680,Bias-Inconsistent,Gamble
3,52,321,Full,Tight,Last,12,1,0,1238,,Bad,-160,Lose,630,Bias-Inconsistent,Sure
3,52,321,Full,Tight,Last,13,1,1,835,,Good,-30,Lose,600,Bias-Consistent,Gamble
3,52,321,Full,Tight,Last,14,1,1,1348,,Good,-5,Lose,595,Bias-Consistent,Gamble
